{"trials":[{"view_history":[{"page_index":0,"viewing_time":378697},{"page_index":1,"viewing_time":22736},{"page_index":2,"viewing_time":26918},{"page_index":3,"viewing_time":4044},{"page_index":4,"viewing_time":1853},{"page_index":5,"viewing_time":4671}],"rt":438921,"trial_type":"instructions","trial_index":0,"time_elapsed":438928,"internal_node_id":"0.0-0.0"},{"rt":null,"stimulus":"","response":null,"trial_type":"html-keyboard-response","trial_index":1,"time_elapsed":438933,"internal_node_id":"0.0-1.0","unixTimestamp":1705700581362},{"rt":null,"stimulus":"./assets/sounds/1024hz.mp3","response":null,"trial_type":"audio-keyboard-response","trial_index":2,"time_elapsed":439661,"internal_node_id":"0.0-2.0","unixTimestamp":1705700582090},{"rt":null,"stimulus":"","response":null,"trial_type":"html-keyboard-response","trial_index":3,"time_elapsed":439912,"internal_node_id":"0.0-3.0","unixTimestamp":1705700582341},{"rt":null,"stimulus":"+","response":null,"trial_type":"html-keyboard-response","trial_index":4,"time_elapsed":440413,"internal_node_id":"0.0-4.0","unixTimestamp":1705700582842},{"rt":null,"stimulus":"./assets/sounds/1024hz.mp3","response":null,"trial_type":"audio-keyboard-response","trial_index":5,"time_elapsed":440913,"internal_node_id":"0.0-5.0","unixTimestamp":1705700583342},{"rt":null,"stimulus":"","response":null,"trial_type":"html-keyboard-response","trial_index":6,"time_elapsed":441167,"internal_node_id":"0.0-6.0","unixTimestamp":1705700583596},{"rt":null,"stimulus":"+","response":null,"trial_type":"html-keyboard-response","trial_index":7,"time_elapsed":441671,"internal_node_id":"0.0-7.0","unixTimestamp":1705700584100},{"rt":null,"stimulus":"./assets/sounds/1024hz.mp3","response":null,"trial_type":"audio-keyboard-response","trial_index":8,"time_elapsed":442171,"internal_node_id":"0.0-8.0","unixTimestamp":1705700584600},{"rt":null,"stimulus":"","response":null,"trial_type":"html-keyboard-response","trial_index":9,"time_elapsed":442426,"internal_node_id":"0.0-9.0","unixTimestamp":1705700584855},{"rt":null,"stimulus":"+","response":null,"trial_type":"html-keyboard-response","trial_index":10,"time_elapsed":442928,"internal_node_id":"0.0-10.0","unixTimestamp":1705700585357},{"rt":null,"stimulus":"./assets/sounds/1024hz.mp3","response":null,"trial_type":"audio-keyboard-response","trial_index":11,"time_elapsed":443428,"internal_node_id":"0.0-11.0","unixTimestamp":1705700585857},{"rt":null,"stimulus":"","response":null,"trial_type":"html-keyboard-response","trial_index":12,"time_elapsed":443680,"internal_node_id":"0.0-12.0","unixTimestamp":1705700586109},{"rt":null,"stimulus":"+","response":null,"trial_type":"html-keyboard-response","trial_index":13,"time_elapsed":444182,"internal_node_id":"0.0-13.0","unixTimestamp":1705700586611},{"rt":null,"stimulus":"./assets/sounds/1024hz.mp3","response":null,"trial_type":"audio-keyboard-response","trial_index":14,"time_elapsed":444680,"internal_node_id":"0.0-14.0","unixTimestamp":1705700587109},{"rt":null,"stimulus":"","response":null,"trial_type":"html-keyboard-response","trial_index":15,"time_elapsed":444934,"internal_node_id":"0.0-15.0","unixTimestamp":1705700587363},{"rt":null,"stimulus":"+","response":null,"trial_type":"html-keyboard-response","trial_index":16,"time_elapsed":445436,"internal_node_id":"0.0-16.0","unixTimestamp":1705700587865},{"rt":null,"stimulus":"./assets/sounds/1920hz.mp3","response":null,"trial_type":"audio-keyboard-response","trial_index":17,"time_elapsed":446130,"internal_node_id":"0.0-17.0","unixTimestamp":1705700588559},{"rt":null,"stimulus":"","response":null,"trial_type":"html-keyboard-response","trial_index":18,"time_elapsed":446381,"internal_node_id":"0.0-18.0","unixTimestamp":1705700588810},{"rt":null,"stimulus":"+","response":null,"trial_type":"html-keyboard-response","trial_index":19,"time_elapsed":446886,"internal_node_id":"0.0-19.0","unixTimestamp":1705700589315},{"rt":null,"stimulus":"./assets/sounds/1024hz.mp3","response":null,"trial_type":"audio-keyboard-response","trial_index":20,"time_elapsed":447387,"internal_node_id":"0.0-20.0","unixTimestamp":1705700589816},{"rt":null,"stimulus":"","response":null,"trial_type":"html-keyboard-response","trial_index":21,"time_elapsed":447640,"internal_node_id":"0.0-21.0","unixTimestamp":1705700590069},{"rt":null,"stimulus":"+","response":null,"trial_type":"html-keyboard-response","trial_index":22,"time_elapsed":448146,"internal_node_id":"0.0-22.0","unixTimestamp":1705700590575},{"rt":null,"stimulus":"./assets/sounds/1024hz.mp3","response":null,"trial_type":"audio-keyboard-response","trial_index":23,"time_elapsed":448645,"internal_node_id":"0.0-23.0","unixTimestamp":1705700591074},{"rt":null,"stimulus":"","response":null,"trial_type":"html-keyboard-response","trial_index":24,"time_elapsed":448900,"internal_node_id":"0.0-24.0","unixTimestamp":1705700591329},{"rt":null,"stimulus":"+","response":null,"trial_type":"html-keyboard-response","trial_index":25,"time_elapsed":449406,"internal_node_id":"0.0-25.0","unixTimestamp":1705700591835},{"rt":null,"stimulus":"./assets/sounds/1024hz.mp3","response":null,"trial_type":"audio-keyboard-response","trial_index":26,"time_elapsed":449908,"internal_node_id":"0.0-26.0","unixTimestamp":1705700592337},{"rt":null,"stimulus":"","response":null,"trial_type":"html-keyboard-response","trial_index":27,"time_elapsed":450162,"internal_node_id":"0.0-27.0","unixTimestamp":1705700592591},{"rt":null,"stimulus":"+","response":null,"trial_type":"html-keyboard-response","trial_index":28,"time_elapsed":450665,"internal_node_id":"0.0-28.0","unixTimestamp":1705700593094},{"rt":null,"stimulus":"./assets/sounds/1024hz.mp3","response":null,"trial_type":"audio-keyboard-response","trial_index":29,"time_elapsed":451165,"internal_node_id":"0.0-29.0","unixTimestamp":1705700593594},{"rt":null,"stimulus":"","response":null,"trial_type":"html-keyboard-response","trial_index":30,"time_elapsed":451417,"internal_node_id":"0.0-30.0","unixTimestamp":1705700593846},{"rt":null,"stimulus":"+","response":null,"trial_type":"html-keyboard-response","trial_index":31,"time_elapsed":451918,"internal_node_id":"0.0-31.0","unixTimestamp":1705700594347},{"rt":null,"stimulus":"./assets/sounds/1024hz.mp3","response":null,"trial_type":"audio-keyboard-response","trial_index":32,"time_elapsed":452418,"internal_node_id":"0.0-32.0","unixTimestamp":1705700594847},{"rt":null,"stimulus":"","response":null,"trial_type":"html-keyboard-response","trial_index":33,"time_elapsed":452672,"internal_node_id":"0.0-33.0","unixTimestamp":1705700595101},{"rt":null,"stimulus":"+","response":null,"trial_type":"html-keyboard-response","trial_index":34,"time_elapsed":453174,"internal_node_id":"0.0-34.0","unixTimestamp":1705700595603},{"rt":null,"stimulus":"./assets/sounds/1024hz.mp3","response":null,"trial_type":"audio-keyboard-response","trial_index":35,"time_elapsed":453675,"internal_node_id":"0.0-35.0","unixTimestamp":1705700596104},{"rt":null,"stimulus":"","response":null,"trial_type":"html-keyboard-response","trial_index":36,"time_elapsed":453928,"internal_node_id":"0.0-36.0","unixTimestamp":1705700596357},{"rt":null,"stimulus":"+","response":null,"trial_type":"html-keyboard-response","trial_index":37,"time_elapsed":454430,"internal_node_id":"0.0-37.0","unixTimestamp":1705700596859},{"rt":null,"stimulus":"./assets/sounds/1024hz.mp3","response":null,"trial_type":"audio-keyboard-response","trial_index":38,"time_elapsed":454928,"internal_node_id":"0.0-38.0","unixTimestamp":1705700597357},{"rt":null,"stimulus":"","response":null,"trial_type":"html-keyboard-response","trial_index":39,"time_elapsed":455184,"internal_node_id":"0.0-39.0","unixTimestamp":1705700597613},{"rt":null,"stimulus":"+","response":null,"trial_type":"html-keyboard-response","trial_index":40,"time_elapsed":455689,"internal_node_id":"0.0-40.0","unixTimestamp":1705700598118},{"rt":null,"stimulus":"./assets/sounds/1920hz.mp3","response":null,"trial_type":"audio-keyboard-response","trial_index":41,"time_elapsed":456192,"internal_node_id":"0.0-41.0","unixTimestamp":1705700598621},{"rt":null,"stimulus":"","response":null,"trial_type":"html-keyboard-response","trial_index":42,"time_elapsed":456443,"internal_node_id":"0.0-42.0","unixTimestamp":1705700598872},{"rt":null,"stimulus":"+","response":null,"trial_type":"html-keyboard-response","trial_index":43,"time_elapsed":456947,"internal_node_id":"0.0-43.0","unixTimestamp":1705700599376},{"rt":null,"stimulus":"./assets/sounds/1024hz.mp3","response":null,"trial_type":"audio-keyboard-response","trial_index":44,"time_elapsed":457448,"internal_node_id":"0.0-44.0","unixTimestamp":1705700599877},{"rt":null,"stimulus":"","response":null,"trial_type":"html-keyboard-response","trial_index":45,"time_elapsed":457699,"internal_node_id":"0.0-45.0","unixTimestamp":1705700600128},{"rt":null,"stimulus":"+","response":null,"trial_type":"html-keyboard-response","trial_index":46,"time_elapsed":458202,"internal_node_id":"0.0-46.0","unixTimestamp":1705700600631},{"rt":null,"stimulus":"./assets/sounds/1024hz.mp3","response":null,"trial_type":"audio-keyboard-response","trial_index":47,"time_elapsed":458700,"internal_node_id":"0.0-47.0","unixTimestamp":1705700601129},{"rt":null,"stimulus":"","response":null,"trial_type":"html-keyboard-response","trial_index":48,"time_elapsed":458956,"internal_node_id":"0.0-48.0","unixTimestamp":1705700601385},{"rt":null,"stimulus":"+","response":null,"trial_type":"html-keyboard-response","trial_index":49,"time_elapsed":459461,"internal_node_id":"0.0-49.0","unixTimestamp":1705700601890},{"rt":null,"stimulus":"./assets/sounds/1024hz.mp3","response":null,"trial_type":"audio-keyboard-response","trial_index":50,"time_elapsed":459963,"internal_node_id":"0.0-50.0","unixTimestamp":1705700602392},{"rt":null,"stimulus":"","response":null,"trial_type":"html-keyboard-response","trial_index":51,"time_elapsed":460214,"internal_node_id":"0.0-51.0","unixTimestamp":1705700602643},{"rt":null,"stimulus":"+","response":null,"trial_type":"html-keyboard-response","trial_index":52,"time_elapsed":460715,"internal_node_id":"0.0-52.0","unixTimestamp":1705700603144},{"rt":null,"stimulus":"./assets/sounds/1024hz.mp3","response":null,"trial_type":"audio-keyboard-response","trial_index":53,"time_elapsed":461216,"internal_node_id":"0.0-53.0","unixTimestamp":1705700603645},{"rt":null,"stimulus":"","response":null,"trial_type":"html-keyboard-response","trial_index":54,"time_elapsed":461469,"internal_node_id":"0.0-54.0","unixTimestamp":1705700603898},{"rt":null,"stimulus":"+","response":null,"trial_type":"html-keyboard-response","trial_index":55,"time_elapsed":461975,"internal_node_id":"0.0-55.0","unixTimestamp":1705700604404},{"rt":null,"stimulus":"./assets/sounds/1024hz.mp3","response":null,"trial_type":"audio-keyboard-response","trial_index":56,"time_elapsed":462473,"internal_node_id":"0.0-56.0","unixTimestamp":1705700604902},{"rt":null,"stimulus":"","response":null,"trial_type":"html-keyboard-response","trial_index":57,"time_elapsed":462728,"internal_node_id":"0.0-57.0","unixTimestamp":1705700605157},{"rt":null,"stimulus":"+","response":null,"trial_type":"html-keyboard-response","trial_index":58,"time_elapsed":463231,"internal_node_id":"0.0-58.0","unixTimestamp":1705700605660},{"rt":null,"stimulus":"./assets/sounds/1024hz.mp3","response":null,"trial_type":"audio-keyboard-response","trial_index":59,"time_elapsed":463731,"internal_node_id":"0.0-59.0","unixTimestamp":1705700606160},{"rt":null,"stimulus":"","response":null,"trial_type":"html-keyboard-response","trial_index":60,"time_elapsed":463987,"internal_node_id":"0.0-60.0","unixTimestamp":1705700606416},{"rt":null,"stimulus":"+","response":null,"trial_type":"html-keyboard-response","trial_index":61,"time_elapsed":464493,"internal_node_id":"0.0-61.0","unixTimestamp":1705700606922},{"rt":null,"stimulus":"./assets/sounds/1024hz.mp3","response":null,"trial_type":"audio-keyboard-response","trial_index":62,"time_elapsed":464994,"internal_node_id":"0.0-62.0","unixTimestamp":1705700607423},{"rt":null,"stimulus":"","response":null,"trial_type":"html-keyboard-response","trial_index":63,"time_elapsed":465246,"internal_node_id":"0.0-63.0","unixTimestamp":1705700607675},{"rt":null,"stimulus":"+","response":null,"trial_type":"html-keyboard-response","trial_index":64,"time_elapsed":465748,"internal_node_id":"0.0-64.0","unixTimestamp":1705700608177},{"rt":null,"stimulus":"./assets/sounds/1024hz.mp3","response":null,"trial_type":"audio-keyboard-response","trial_index":65,"time_elapsed":466246,"internal_node_id":"0.0-65.0","unixTimestamp":1705700608675},{"rt":null,"stimulus":"","response":null,"trial_type":"html-keyboard-response","trial_index":66,"time_elapsed":466498,"internal_node_id":"0.0-66.0","unixTimestamp":1705700608927},{"rt":null,"stimulus":"+","response":null,"trial_type":"html-keyboard-response","trial_index":67,"time_elapsed":467001,"internal_node_id":"0.0-67.0","unixTimestamp":1705700609430},{"rt":null,"stimulus":"./assets/sounds/1024hz.mp3","response":null,"trial_type":"audio-keyboard-response","trial_index":68,"time_elapsed":467498,"internal_node_id":"0.0-68.0","unixTimestamp":1705700609927},{"rt":null,"stimulus":"","response":null,"trial_type":"html-keyboard-response","trial_index":69,"time_elapsed":467750,"internal_node_id":"0.0-69.0","unixTimestamp":1705700610179},{"rt":null,"stimulus":"+","response":null,"trial_type":"html-keyboard-response","trial_index":70,"time_elapsed":468252,"internal_node_id":"0.0-70.0","unixTimestamp":1705700610681},{"rt":null,"stimulus":"./assets/sounds/1920hz.mp3","response":null,"trial_type":"audio-keyboard-response","trial_index":71,"time_elapsed":468750,"internal_node_id":"0.0-71.0","unixTimestamp":1705700611179},{"rt":null,"stimulus":"","response":null,"trial_type":"html-keyboard-response","trial_index":72,"time_elapsed":469006,"internal_node_id":"0.0-72.0","unixTimestamp":1705700611435},{"rt":null,"stimulus":"+","response":null,"trial_type":"html-keyboard-response","trial_index":73,"time_elapsed":469510,"internal_node_id":"0.0-73.0","unixTimestamp":1705700611939},{"rt":null,"stimulus":"./assets/sounds/1024hz.mp3","response":null,"trial_type":"audio-keyboard-response","trial_index":74,"time_elapsed":470008,"internal_node_id":"0.0-74.0","unixTimestamp":1705700612437},{"rt":null,"stimulus":"","response":null,"trial_type":"html-keyboard-response","trial_index":75,"time_elapsed":470262,"internal_node_id":"0.0-75.0","unixTimestamp":1705700612691},{"rt":null,"stimulus":"+","response":null,"trial_type":"html-keyboard-response","trial_index":76,"time_elapsed":470764,"internal_node_id":"0.0-76.0","unixTimestamp":1705700613193},{"rt":null,"stimulus":"./assets/sounds/1024hz.mp3","response":null,"trial_type":"audio-keyboard-response","trial_index":77,"time_elapsed":471266,"internal_node_id":"0.0-77.0","unixTimestamp":1705700613695},{"rt":null,"stimulus":"","response":null,"trial_type":"html-keyboard-response","trial_index":78,"time_elapsed":471517,"internal_node_id":"0.0-78.0","unixTimestamp":1705700613946},{"rt":null,"stimulus":"+","response":null,"trial_type":"html-keyboard-response","trial_index":79,"time_elapsed":472024,"internal_node_id":"0.0-79.0","unixTimestamp":1705700614453},{"rt":null,"stimulus":"./assets/sounds/1024hz.mp3","response":null,"trial_type":"audio-keyboard-response","trial_index":80,"time_elapsed":472524,"internal_node_id":"0.0-80.0","unixTimestamp":1705700614953},{"rt":null,"stimulus":"","response":null,"trial_type":"html-keyboard-response","trial_index":81,"time_elapsed":472779,"internal_node_id":"0.0-81.0","unixTimestamp":1705700615208},{"rt":null,"stimulus":"+","response":null,"trial_type":"html-keyboard-response","trial_index":82,"time_elapsed":473279,"internal_node_id":"0.0-82.0","unixTimestamp":1705700615708},{"rt":null,"stimulus":"./assets/sounds/1024hz.mp3","response":null,"trial_type":"audio-keyboard-response","trial_index":83,"time_elapsed":473781,"internal_node_id":"0.0-83.0","unixTimestamp":1705700616210},{"rt":null,"stimulus":"","response":null,"trial_type":"html-keyboard-response","trial_index":84,"time_elapsed":474035,"internal_node_id":"0.0-84.0","unixTimestamp":1705700616464},{"rt":null,"stimulus":"+","response":null,"trial_type":"html-keyboard-response","trial_index":85,"time_elapsed":474537,"internal_node_id":"0.0-85.0","unixTimestamp":1705700616966},{"rt":null,"stimulus":"./assets/sounds/1024hz.mp3","response":null,"trial_type":"audio-keyboard-response","trial_index":86,"time_elapsed":475038,"internal_node_id":"0.0-86.0","unixTimestamp":1705700617467},{"rt":null,"stimulus":"","response":null,"trial_type":"html-keyboard-response","trial_index":87,"time_elapsed":475289,"internal_node_id":"0.0-87.0","unixTimestamp":1705700617718},{"rt":null,"stimulus":"+","response":null,"trial_type":"html-keyboard-response","trial_index":88,"time_elapsed":475790,"internal_node_id":"0.0-88.0","unixTimestamp":1705700618219},{"rt":null,"stimulus":"./assets/sounds/1024hz.mp3","response":null,"trial_type":"audio-keyboard-response","trial_index":89,"time_elapsed":476291,"internal_node_id":"0.0-89.0","unixTimestamp":1705700618720},{"rt":null,"stimulus":"","response":null,"trial_type":"html-keyboard-response","trial_index":90,"time_elapsed":476544,"internal_node_id":"0.0-90.0","unixTimestamp":1705700618973},{"rt":null,"stimulus":"+","response":null,"trial_type":"html-keyboard-response","trial_index":91,"time_elapsed":477048,"internal_node_id":"0.0-91.0","unixTimestamp":1705700619477},{"rt":null,"stimulus":"./assets/sounds/1024hz.mp3","response":null,"trial_type":"audio-keyboard-response","trial_index":92,"time_elapsed":477553,"internal_node_id":"0.0-92.0","unixTimestamp":1705700619982},{"rt":null,"stimulus":"","response":null,"trial_type":"html-keyboard-response","trial_index":93,"time_elapsed":477807,"internal_node_id":"0.0-93.0","unixTimestamp":1705700620236},{"rt":null,"stimulus":"+","response":null,"trial_type":"html-keyboard-response","trial_index":94,"time_elapsed":478310,"internal_node_id":"0.0-94.0","unixTimestamp":1705700620739},{"rt":null,"stimulus":"./assets/sounds/1024hz.mp3","response":null,"trial_type":"audio-keyboard-response","trial_index":95,"time_elapsed":478811,"internal_node_id":"0.0-95.0","unixTimestamp":1705700621240},{"rt":null,"stimulus":"","response":null,"trial_type":"html-keyboard-response","trial_index":96,"time_elapsed":479066,"internal_node_id":"0.0-96.0","unixTimestamp":1705700621495},{"rt":null,"stimulus":"+","response":null,"trial_type":"html-keyboard-response","trial_index":97,"time_elapsed":479568,"internal_node_id":"0.0-97.0","unixTimestamp":1705700621997},{"rt":null,"stimulus":"./assets/sounds/1024hz.mp3","response":null,"trial_type":"audio-keyboard-response","trial_index":98,"time_elapsed":480069,"internal_node_id":"0.0-98.0","unixTimestamp":1705700622498},{"rt":null,"stimulus":"","response":null,"trial_type":"html-keyboard-response","trial_index":99,"time_elapsed":480322,"internal_node_id":"0.0-99.0","unixTimestamp":1705700622751},{"rt":null,"stimulus":"+","response":null,"trial_type":"html-keyboard-response","trial_index":100,"time_elapsed":480828,"internal_node_id":"0.0-100.0","unixTimestamp":1705700623257},{"rt":null,"stimulus":"./assets/sounds/1024hz.mp3","response":null,"trial_type":"audio-keyboard-response","trial_index":101,"time_elapsed":481326,"internal_node_id":"0.0-101.0","unixTimestamp":1705700623755},{"rt":null,"stimulus":"","response":null,"trial_type":"html-keyboard-response","trial_index":102,"time_elapsed":481582,"internal_node_id":"0.0-102.0","unixTimestamp":1705700624011},{"rt":null,"stimulus":"+","response":null,"trial_type":"html-keyboard-response","trial_index":103,"time_elapsed":482083,"internal_node_id":"0.0-103.0","unixTimestamp":1705700624512},{"rt":null,"stimulus":"./assets/sounds/1024hz.mp3","response":null,"trial_type":"audio-keyboard-response","trial_index":104,"time_elapsed":482584,"internal_node_id":"0.0-104.0","unixTimestamp":1705700625013},{"rt":null,"stimulus":"","response":null,"trial_type":"html-keyboard-response","trial_index":105,"time_elapsed":482836,"internal_node_id":"0.0-105.0","unixTimestamp":1705700625265},{"rt":null,"stimulus":"+","response":null,"trial_type":"html-keyboard-response","trial_index":106,"time_elapsed":483337,"internal_node_id":"0.0-106.0","unixTimestamp":1705700625766},{"rt":null,"stimulus":"./assets/sounds/1920hz.mp3","response":null,"trial_type":"audio-keyboard-response","trial_index":107,"time_elapsed":483842,"internal_node_id":"0.0-107.0","unixTimestamp":1705700626271},{"rt":null,"stimulus":"","response":null,"trial_type":"html-keyboard-response","trial_index":108,"time_elapsed":484096,"internal_node_id":"0.0-108.0","unixTimestamp":1705700626525},{"rt":null,"stimulus":"+","response":null,"trial_type":"html-keyboard-response","trial_index":109,"time_elapsed":484600,"internal_node_id":"0.0-109.0","unixTimestamp":1705700627029},{"rt":null,"stimulus":"./assets/sounds/1024hz.mp3","response":null,"trial_type":"audio-keyboard-response","trial_index":110,"time_elapsed":485100,"internal_node_id":"0.0-110.0","unixTimestamp":1705700627529},{"rt":null,"stimulus":"","response":null,"trial_type":"html-keyboard-response","trial_index":111,"time_elapsed":485351,"internal_node_id":"0.0-111.0","unixTimestamp":1705700627780},{"rt":null,"stimulus":"+","response":null,"trial_type":"html-keyboard-response","trial_index":112,"time_elapsed":485855,"internal_node_id":"0.0-112.0","unixTimestamp":1705700628284},{"rt":null,"stimulus":"./assets/sounds/1024hz.mp3","response":null,"trial_type":"audio-keyboard-response","trial_index":113,"time_elapsed":486357,"internal_node_id":"0.0-113.0","unixTimestamp":1705700628786},{"rt":null,"stimulus":"","response":null,"trial_type":"html-keyboard-response","trial_index":114,"time_elapsed":486611,"internal_node_id":"0.0-114.0","unixTimestamp":1705700629040},{"rt":null,"stimulus":"+","response":null,"trial_type":"html-keyboard-response","trial_index":115,"time_elapsed":487117,"internal_node_id":"0.0-115.0","unixTimestamp":1705700629546},{"rt":null,"stimulus":"./assets/sounds/1024hz.mp3","response":null,"trial_type":"audio-keyboard-response","trial_index":116,"time_elapsed":487614,"internal_node_id":"0.0-116.0","unixTimestamp":1705700630043},{"rt":null,"stimulus":"","response":null,"trial_type":"html-keyboard-response","trial_index":117,"time_elapsed":487867,"internal_node_id":"0.0-117.0","unixTimestamp":1705700630296},{"rt":null,"stimulus":"+","response":null,"trial_type":"html-keyboard-response","trial_index":118,"time_elapsed":488369,"internal_node_id":"0.0-118.0","unixTimestamp":1705700630798},{"rt":null,"stimulus":"./assets/sounds/1024hz.mp3","response":null,"trial_type":"audio-keyboard-response","trial_index":119,"time_elapsed":488867,"internal_node_id":"0.0-119.0","unixTimestamp":1705700631296},{"rt":null,"stimulus":"","response":null,"trial_type":"html-keyboard-response","trial_index":120,"time_elapsed":489119,"internal_node_id":"0.0-120.0","unixTimestamp":1705700631548},{"rt":null,"stimulus":"+","response":null,"trial_type":"html-keyboard-response","trial_index":121,"time_elapsed":489625,"internal_node_id":"0.0-121.0","unixTimestamp":1705700632054},{"rt":null,"stimulus":"./assets/sounds/1024hz.mp3","response":null,"trial_type":"audio-keyboard-response","trial_index":122,"time_elapsed":490130,"internal_node_id":"0.0-122.0","unixTimestamp":1705700632559},{"rt":null,"stimulus":"","response":null,"trial_type":"html-keyboard-response","trial_index":123,"time_elapsed":490381,"internal_node_id":"0.0-123.0","unixTimestamp":1705700632810},{"rt":null,"stimulus":"+","response":null,"trial_type":"html-keyboard-response","trial_index":124,"time_elapsed":490884,"internal_node_id":"0.0-124.0","unixTimestamp":1705700633313},{"rt":null,"stimulus":"./assets/sounds/1024hz.mp3","response":null,"trial_type":"audio-keyboard-response","trial_index":125,"time_elapsed":491382,"internal_node_id":"0.0-125.0","unixTimestamp":1705700633811},{"rt":null,"stimulus":"","response":null,"trial_type":"html-keyboard-response","trial_index":126,"time_elapsed":491635,"internal_node_id":"0.0-126.0","unixTimestamp":1705700634064},{"rt":null,"stimulus":"+","response":null,"trial_type":"html-keyboard-response","trial_index":127,"time_elapsed":492138,"internal_node_id":"0.0-127.0","unixTimestamp":1705700634567},{"rt":null,"stimulus":"./assets/sounds/1024hz.mp3","response":null,"trial_type":"audio-keyboard-response","trial_index":128,"time_elapsed":492639,"internal_node_id":"0.0-128.0","unixTimestamp":1705700635068},{"rt":null,"stimulus":"","response":null,"trial_type":"html-keyboard-response","trial_index":129,"time_elapsed":492890,"internal_node_id":"0.0-129.0","unixTimestamp":1705700635319},{"rt":null,"stimulus":"+","response":null,"trial_type":"html-keyboard-response","trial_index":130,"time_elapsed":493391,"internal_node_id":"0.0-130.0","unixTimestamp":1705700635820},{"rt":null,"stimulus":"./assets/sounds/1024hz.mp3","response":null,"trial_type":"audio-keyboard-response","trial_index":131,"time_elapsed":493892,"internal_node_id":"0.0-131.0","unixTimestamp":1705700636321},{"rt":null,"stimulus":"","response":null,"trial_type":"html-keyboard-response","trial_index":132,"time_elapsed":494146,"internal_node_id":"0.0-132.0","unixTimestamp":1705700636575},{"rt":null,"stimulus":"+","response":null,"trial_type":"html-keyboard-response","trial_index":133,"time_elapsed":494649,"internal_node_id":"0.0-133.0","unixTimestamp":1705700637078},{"rt":null,"stimulus":"./assets/sounds/1920hz.mp3","response":null,"trial_type":"audio-keyboard-response","trial_index":134,"time_elapsed":495155,"internal_node_id":"0.0-134.0","unixTimestamp":1705700637584},{"rt":null,"stimulus":"","response":null,"trial_type":"html-keyboard-response","trial_index":135,"time_elapsed":495410,"internal_node_id":"0.0-135.0","unixTimestamp":1705700637839},{"rt":null,"stimulus":"+","response":null,"trial_type":"html-keyboard-response","trial_index":136,"time_elapsed":495911,"internal_node_id":"0.0-136.0","unixTimestamp":1705700638340},{"rt":null,"stimulus":"./assets/sounds/1024hz.mp3","response":null,"trial_type":"audio-keyboard-response","trial_index":137,"time_elapsed":496418,"internal_node_id":"0.0-137.0","unixTimestamp":1705700638847},{"rt":null,"stimulus":"","response":null,"trial_type":"html-keyboard-response","trial_index":138,"time_elapsed":496672,"internal_node_id":"0.0-138.0","unixTimestamp":1705700639101},{"rt":null,"stimulus":"+","response":null,"trial_type":"html-keyboard-response","trial_index":139,"time_elapsed":497175,"internal_node_id":"0.0-139.0","unixTimestamp":1705700639604},{"rt":null,"stimulus":"./assets/sounds/1024hz.mp3","response":null,"trial_type":"audio-keyboard-response","trial_index":140,"time_elapsed":497679,"internal_node_id":"0.0-140.0","unixTimestamp":1705700640108},{"rt":null,"stimulus":"","response":null,"trial_type":"html-keyboard-response","trial_index":141,"time_elapsed":497942,"internal_node_id":"0.0-141.0","unixTimestamp":1705700640371},{"rt":null,"stimulus":"+","response":null,"trial_type":"html-keyboard-response","trial_index":142,"time_elapsed":498443,"internal_node_id":"0.0-142.0","unixTimestamp":1705700640872},{"rt":null,"stimulus":"./assets/sounds/1024hz.mp3","response":null,"trial_type":"audio-keyboard-response","trial_index":143,"time_elapsed":498943,"internal_node_id":"0.0-143.0","unixTimestamp":1705700641372},{"rt":null,"stimulus":"","response":null,"trial_type":"html-keyboard-response","trial_index":144,"time_elapsed":499196,"internal_node_id":"0.0-144.0","unixTimestamp":1705700641625},{"rt":null,"stimulus":"+","response":null,"trial_type":"html-keyboard-response","trial_index":145,"time_elapsed":499699,"internal_node_id":"0.0-145.0","unixTimestamp":1705700642128},{"rt":null,"stimulus":"./assets/sounds/1024hz.mp3","response":null,"trial_type":"audio-keyboard-response","trial_index":146,"time_elapsed":500201,"internal_node_id":"0.0-146.0","unixTimestamp":1705700642630},{"rt":null,"stimulus":"","response":null,"trial_type":"html-keyboard-response","trial_index":147,"time_elapsed":500453,"internal_node_id":"0.0-147.0","unixTimestamp":1705700642882},{"rt":null,"stimulus":"+","response":null,"trial_type":"html-keyboard-response","trial_index":148,"time_elapsed":500955,"internal_node_id":"0.0-148.0","unixTimestamp":1705700643384},{"rt":null,"stimulus":"./assets/sounds/1920hz.mp3","response":null,"trial_type":"audio-keyboard-response","trial_index":149,"time_elapsed":501454,"internal_node_id":"0.0-149.0","unixTimestamp":1705700643883},{"rt":null,"stimulus":"","response":null,"trial_type":"html-keyboard-response","trial_index":150,"time_elapsed":501710,"internal_node_id":"0.0-150.0","unixTimestamp":1705700644139},{"rt":null,"stimulus":"+","response":null,"trial_type":"html-keyboard-response","trial_index":151,"time_elapsed":502213,"internal_node_id":"0.0-151.0","unixTimestamp":1705700644642},{"rt":null,"stimulus":"./assets/sounds/1024hz.mp3","response":null,"trial_type":"audio-keyboard-response","trial_index":152,"time_elapsed":502716,"internal_node_id":"0.0-152.0","unixTimestamp":1705700645145},{"rt":null,"stimulus":"","response":null,"trial_type":"html-keyboard-response","trial_index":153,"time_elapsed":502968,"internal_node_id":"0.0-153.0","unixTimestamp":1705700645397},{"rt":null,"stimulus":"+","response":null,"trial_type":"html-keyboard-response","trial_index":154,"time_elapsed":503471,"internal_node_id":"0.0-154.0","unixTimestamp":1705700645900},{"rt":null,"stimulus":"./assets/sounds/1024hz.mp3","response":null,"trial_type":"audio-keyboard-response","trial_index":155,"time_elapsed":503968,"internal_node_id":"0.0-155.0","unixTimestamp":1705700646397},{"rt":null,"stimulus":"","response":null,"trial_type":"html-keyboard-response","trial_index":156,"time_elapsed":504221,"internal_node_id":"0.0-156.0","unixTimestamp":1705700646650},{"rt":null,"stimulus":"+","response":null,"trial_type":"html-keyboard-response","trial_index":157,"time_elapsed":504726,"internal_node_id":"0.0-157.0","unixTimestamp":1705700647155},{"rt":null,"stimulus":"./assets/sounds/1024hz.mp3","response":null,"trial_type":"audio-keyboard-response","trial_index":158,"time_elapsed":505226,"internal_node_id":"0.0-158.0","unixTimestamp":1705700647655},{"rt":null,"stimulus":"","response":null,"trial_type":"html-keyboard-response","trial_index":159,"time_elapsed":505478,"internal_node_id":"0.0-159.0","unixTimestamp":1705700647907},{"rt":null,"stimulus":"+","response":null,"trial_type":"html-keyboard-response","trial_index":160,"time_elapsed":505981,"internal_node_id":"0.0-160.0","unixTimestamp":1705700648410},{"rt":null,"stimulus":"./assets/sounds/1024hz.mp3","response":null,"trial_type":"audio-keyboard-response","trial_index":161,"time_elapsed":506478,"internal_node_id":"0.0-161.0","unixTimestamp":1705700648907},{"rt":null,"stimulus":"","response":null,"trial_type":"html-keyboard-response","trial_index":162,"time_elapsed":506735,"internal_node_id":"0.0-162.0","unixTimestamp":1705700649164},{"rt":null,"stimulus":"+","response":null,"trial_type":"html-keyboard-response","trial_index":163,"time_elapsed":507240,"internal_node_id":"0.0-163.0","unixTimestamp":1705700649669},{"rt":null,"stimulus":"./assets/sounds/1024hz.mp3","response":null,"trial_type":"audio-keyboard-response","trial_index":164,"time_elapsed":507741,"internal_node_id":"0.0-164.0","unixTimestamp":1705700650170},{"rt":null,"stimulus":"","response":null,"trial_type":"html-keyboard-response","trial_index":165,"time_elapsed":507993,"internal_node_id":"0.0-165.0","unixTimestamp":1705700650422},{"rt":null,"stimulus":"+","response":null,"trial_type":"html-keyboard-response","trial_index":166,"time_elapsed":508496,"internal_node_id":"0.0-166.0","unixTimestamp":1705700650925},{"rt":null,"stimulus":"./assets/sounds/1024hz.mp3","response":null,"trial_type":"audio-keyboard-response","trial_index":167,"time_elapsed":508999,"internal_node_id":"0.0-167.0","unixTimestamp":1705700651428},{"rt":null,"stimulus":"","response":null,"trial_type":"html-keyboard-response","trial_index":168,"time_elapsed":509252,"internal_node_id":"0.0-168.0","unixTimestamp":1705700651681},{"rt":null,"stimulus":"+","response":null,"trial_type":"html-keyboard-response","trial_index":169,"time_elapsed":509753,"internal_node_id":"0.0-169.0","unixTimestamp":1705700652182},{"rt":null,"stimulus":"./assets/sounds/1024hz.mp3","response":null,"trial_type":"audio-keyboard-response","trial_index":170,"time_elapsed":510251,"internal_node_id":"0.0-170.0","unixTimestamp":1705700652680},{"rt":null,"stimulus":"","response":null,"trial_type":"html-keyboard-response","trial_index":171,"time_elapsed":510502,"internal_node_id":"0.0-171.0","unixTimestamp":1705700652931},{"rt":null,"stimulus":"+","response":null,"trial_type":"html-keyboard-response","trial_index":172,"time_elapsed":511006,"internal_node_id":"0.0-172.0","unixTimestamp":1705700653435},{"rt":null,"stimulus":"./assets/sounds/1024hz.mp3","response":null,"trial_type":"audio-keyboard-response","trial_index":173,"time_elapsed":511503,"internal_node_id":"0.0-173.0","unixTimestamp":1705700653932},{"rt":null,"stimulus":"","response":null,"trial_type":"html-keyboard-response","trial_index":174,"time_elapsed":511757,"internal_node_id":"0.0-174.0","unixTimestamp":1705700654186},{"rt":null,"stimulus":"+","response":null,"trial_type":"html-keyboard-response","trial_index":175,"time_elapsed":512262,"internal_node_id":"0.0-175.0","unixTimestamp":1705700654691},{"rt":null,"stimulus":"./assets/sounds/1024hz.mp3","response":null,"trial_type":"audio-keyboard-response","trial_index":176,"time_elapsed":512761,"internal_node_id":"0.0-176.0","unixTimestamp":1705700655190},{"rt":null,"stimulus":"","response":null,"trial_type":"html-keyboard-response","trial_index":177,"time_elapsed":513012,"internal_node_id":"0.0-177.0","unixTimestamp":1705700655441},{"rt":null,"stimulus":"+","response":null,"trial_type":"html-keyboard-response","trial_index":178,"time_elapsed":513518,"internal_node_id":"0.0-178.0","unixTimestamp":1705700655947},{"rt":null,"stimulus":"./assets/sounds/1024hz.mp3","response":null,"trial_type":"audio-keyboard-response","trial_index":179,"time_elapsed":514019,"internal_node_id":"0.0-179.0","unixTimestamp":1705700656448},{"rt":null,"stimulus":"","response":null,"trial_type":"html-keyboard-response","trial_index":180,"time_elapsed":514273,"internal_node_id":"0.0-180.0","unixTimestamp":1705700656702},{"rt":null,"stimulus":"+","response":null,"trial_type":"html-keyboard-response","trial_index":181,"time_elapsed":514779,"internal_node_id":"0.0-181.0","unixTimestamp":1705700657208},{"rt":null,"stimulus":"./assets/sounds/1024hz.mp3","response":null,"trial_type":"audio-keyboard-response","trial_index":182,"time_elapsed":515281,"internal_node_id":"0.0-182.0","unixTimestamp":1705700657710},{"rt":null,"stimulus":"","response":null,"trial_type":"html-keyboard-response","trial_index":183,"time_elapsed":515534,"internal_node_id":"0.0-183.0","unixTimestamp":1705700657963},{"rt":null,"stimulus":"+","response":null,"trial_type":"html-keyboard-response","trial_index":184,"time_elapsed":516036,"internal_node_id":"0.0-184.0","unixTimestamp":1705700658465},{"rt":null,"stimulus":"./assets/sounds/1024hz.mp3","response":null,"trial_type":"audio-keyboard-response","trial_index":185,"time_elapsed":516534,"internal_node_id":"0.0-185.0","unixTimestamp":1705700658963},{"rt":null,"stimulus":"","response":null,"trial_type":"html-keyboard-response","trial_index":186,"time_elapsed":516791,"internal_node_id":"0.0-186.0","unixTimestamp":1705700659220},{"rt":null,"stimulus":"+","response":null,"trial_type":"html-keyboard-response","trial_index":187,"time_elapsed":517295,"internal_node_id":"0.0-187.0","unixTimestamp":1705700659724},{"rt":null,"stimulus":"./assets/sounds/1920hz.mp3","response":null,"trial_type":"audio-keyboard-response","trial_index":188,"time_elapsed":517797,"internal_node_id":"0.0-188.0","unixTimestamp":1705700660226},{"rt":null,"stimulus":"","response":null,"trial_type":"html-keyboard-response","trial_index":189,"time_elapsed":518049,"internal_node_id":"0.0-189.0","unixTimestamp":1705700660478},{"rt":null,"stimulus":"+","response":null,"trial_type":"html-keyboard-response","trial_index":190,"time_elapsed":518551,"internal_node_id":"0.0-190.0","unixTimestamp":1705700660980},{"rt":null,"stimulus":"./assets/sounds/1024hz.mp3","response":null,"trial_type":"audio-keyboard-response","trial_index":191,"time_elapsed":519050,"internal_node_id":"0.0-191.0","unixTimestamp":1705700661479},{"rt":null,"stimulus":"","response":null,"trial_type":"html-keyboard-response","trial_index":192,"time_elapsed":519304,"internal_node_id":"0.0-192.0","unixTimestamp":1705700661733},{"rt":null,"stimulus":"+","response":null,"trial_type":"html-keyboard-response","trial_index":193,"time_elapsed":519808,"internal_node_id":"0.0-193.0","unixTimestamp":1705700662237},{"rt":null,"stimulus":"./assets/sounds/1024hz.mp3","response":null,"trial_type":"audio-keyboard-response","trial_index":194,"time_elapsed":520306,"internal_node_id":"0.0-194.0","unixTimestamp":1705700662735},{"rt":null,"stimulus":"","response":null,"trial_type":"html-keyboard-response","trial_index":195,"time_elapsed":520560,"internal_node_id":"0.0-195.0","unixTimestamp":1705700662989},{"rt":null,"stimulus":"+","response":null,"trial_type":"html-keyboard-response","trial_index":196,"time_elapsed":521062,"internal_node_id":"0.0-196.0","unixTimestamp":1705700663491},{"rt":null,"stimulus":"./assets/sounds/1024hz.mp3","response":null,"trial_type":"audio-keyboard-response","trial_index":197,"time_elapsed":521564,"internal_node_id":"0.0-197.0","unixTimestamp":1705700663993},{"rt":null,"stimulus":"","response":null,"trial_type":"html-keyboard-response","trial_index":198,"time_elapsed":521816,"internal_node_id":"0.0-198.0","unixTimestamp":1705700664245},{"rt":null,"stimulus":"+","response":null,"trial_type":"html-keyboard-response","trial_index":199,"time_elapsed":522317,"internal_node_id":"0.0-199.0","unixTimestamp":1705700664746},{"rt":null,"stimulus":"./assets/sounds/1024hz.mp3","response":null,"trial_type":"audio-keyboard-response","trial_index":200,"time_elapsed":522817,"internal_node_id":"0.0-200.0","unixTimestamp":1705700665246},{"rt":null,"stimulus":"","response":null,"trial_type":"html-keyboard-response","trial_index":201,"time_elapsed":523070,"internal_node_id":"0.0-201.0","unixTimestamp":1705700665499},{"rt":null,"stimulus":"+","response":null,"trial_type":"html-keyboard-response","trial_index":202,"time_elapsed":523571,"internal_node_id":"0.0-202.0","unixTimestamp":1705700666000},{"rt":null,"stimulus":"./assets/sounds/1024hz.mp3","response":null,"trial_type":"audio-keyboard-response","trial_index":203,"time_elapsed":524069,"internal_node_id":"0.0-203.0","unixTimestamp":1705700666498},{"rt":null,"stimulus":"","response":null,"trial_type":"html-keyboard-response","trial_index":204,"time_elapsed":524322,"internal_node_id":"0.0-204.0","unixTimestamp":1705700666751},{"rt":null,"stimulus":"+","response":null,"trial_type":"html-keyboard-response","trial_index":205,"time_elapsed":524825,"internal_node_id":"0.0-205.0","unixTimestamp":1705700667254},{"rt":null,"stimulus":"./assets/sounds/1024hz.mp3","response":null,"trial_type":"audio-keyboard-response","trial_index":206,"time_elapsed":525326,"internal_node_id":"0.0-206.0","unixTimestamp":1705700667755},{"rt":null,"stimulus":"","response":null,"trial_type":"html-keyboard-response","trial_index":207,"time_elapsed":525581,"internal_node_id":"0.0-207.0","unixTimestamp":1705700668010},{"rt":null,"stimulus":"+","response":null,"trial_type":"html-keyboard-response","trial_index":208,"time_elapsed":526088,"internal_node_id":"0.0-208.0","unixTimestamp":1705700668517},{"rt":null,"stimulus":"./assets/sounds/1024hz.mp3","response":null,"trial_type":"audio-keyboard-response","trial_index":209,"time_elapsed":526589,"internal_node_id":"0.0-209.0","unixTimestamp":1705700669018},{"rt":null,"stimulus":"","response":null,"trial_type":"html-keyboard-response","trial_index":210,"time_elapsed":526844,"internal_node_id":"0.0-210.0","unixTimestamp":1705700669273},{"rt":null,"stimulus":"+","response":null,"trial_type":"html-keyboard-response","trial_index":211,"time_elapsed":527346,"internal_node_id":"0.0-211.0","unixTimestamp":1705700669775},{"rt":null,"stimulus":"./assets/sounds/1024hz.mp3","response":null,"trial_type":"audio-keyboard-response","trial_index":212,"time_elapsed":527852,"internal_node_id":"0.0-212.0","unixTimestamp":1705700670281},{"rt":null,"stimulus":"","response":null,"trial_type":"html-keyboard-response","trial_index":213,"time_elapsed":528103,"internal_node_id":"0.0-213.0","unixTimestamp":1705700670532},{"rt":null,"stimulus":"+","response":null,"trial_type":"html-keyboard-response","trial_index":214,"time_elapsed":528605,"internal_node_id":"0.0-214.0","unixTimestamp":1705700671034},{"rt":null,"stimulus":"./assets/sounds/1920hz.mp3","response":null,"trial_type":"audio-keyboard-response","trial_index":215,"time_elapsed":529104,"internal_node_id":"0.0-215.0","unixTimestamp":1705700671533},{"rt":null,"stimulus":"","response":null,"trial_type":"html-keyboard-response","trial_index":216,"time_elapsed":529361,"internal_node_id":"0.0-216.0","unixTimestamp":1705700671790},{"rt":null,"stimulus":"+","response":null,"trial_type":"html-keyboard-response","trial_index":217,"time_elapsed":529864,"internal_node_id":"0.0-217.0","unixTimestamp":1705700672293},{"rt":null,"stimulus":"./assets/sounds/1024hz.mp3","response":null,"trial_type":"audio-keyboard-response","trial_index":218,"time_elapsed":530362,"internal_node_id":"0.0-218.0","unixTimestamp":1705700672791},{"rt":null,"stimulus":"","response":null,"trial_type":"html-keyboard-response","trial_index":219,"time_elapsed":530614,"internal_node_id":"0.0-219.0","unixTimestamp":1705700673043},{"rt":null,"stimulus":"+","response":null,"trial_type":"html-keyboard-response","trial_index":220,"time_elapsed":531116,"internal_node_id":"0.0-220.0","unixTimestamp":1705700673545},{"rt":null,"stimulus":"./assets/sounds/1024hz.mp3","response":null,"trial_type":"audio-keyboard-response","trial_index":221,"time_elapsed":531614,"internal_node_id":"0.0-221.0","unixTimestamp":1705700674043},{"rt":null,"stimulus":"","response":null,"trial_type":"html-keyboard-response","trial_index":222,"time_elapsed":531869,"internal_node_id":"0.0-222.0","unixTimestamp":1705700674298},{"rt":null,"stimulus":"+","response":null,"trial_type":"html-keyboard-response","trial_index":223,"time_elapsed":532371,"internal_node_id":"0.0-223.0","unixTimestamp":1705700674800},{"rt":null,"stimulus":"./assets/sounds/1024hz.mp3","response":null,"trial_type":"audio-keyboard-response","trial_index":224,"time_elapsed":532874,"internal_node_id":"0.0-224.0","unixTimestamp":1705700675303},{"rt":null,"stimulus":"","response":null,"trial_type":"html-keyboard-response","trial_index":225,"time_elapsed":533124,"internal_node_id":"0.0-225.0","unixTimestamp":1705700675553},{"rt":null,"stimulus":"+","response":null,"trial_type":"html-keyboard-response","trial_index":226,"time_elapsed":533625,"internal_node_id":"0.0-226.0","unixTimestamp":1705700676054},{"rt":null,"stimulus":"./assets/sounds/1024hz.mp3","response":null,"trial_type":"audio-keyboard-response","trial_index":227,"time_elapsed":534129,"internal_node_id":"0.0-227.0","unixTimestamp":1705700676558},{"rt":null,"stimulus":"","response":null,"trial_type":"html-keyboard-response","trial_index":228,"time_elapsed":534384,"internal_node_id":"0.0-228.0","unixTimestamp":1705700676813},{"rt":null,"stimulus":"+","response":null,"trial_type":"html-keyboard-response","trial_index":229,"time_elapsed":534885,"internal_node_id":"0.0-229.0","unixTimestamp":1705700677314},{"rt":null,"stimulus":"./assets/sounds/1024hz.mp3","response":null,"trial_type":"audio-keyboard-response","trial_index":230,"time_elapsed":535382,"internal_node_id":"0.0-230.0","unixTimestamp":1705700677811},{"rt":null,"stimulus":"","response":null,"trial_type":"html-keyboard-response","trial_index":231,"time_elapsed":535633,"internal_node_id":"0.0-231.0","unixTimestamp":1705700678062},{"rt":null,"stimulus":"+","response":null,"trial_type":"html-keyboard-response","trial_index":232,"time_elapsed":536136,"internal_node_id":"0.0-232.0","unixTimestamp":1705700678565},{"rt":null,"stimulus":"./assets/sounds/1024hz.mp3","response":null,"trial_type":"audio-keyboard-response","trial_index":233,"time_elapsed":536634,"internal_node_id":"0.0-233.0","unixTimestamp":1705700679063},{"rt":null,"stimulus":"","response":null,"trial_type":"html-keyboard-response","trial_index":234,"time_elapsed":536885,"internal_node_id":"0.0-234.0","unixTimestamp":1705700679314},{"rt":null,"stimulus":"+","response":null,"trial_type":"html-keyboard-response","trial_index":235,"time_elapsed":537389,"internal_node_id":"0.0-235.0","unixTimestamp":1705700679818},{"rt":null,"stimulus":"./assets/sounds/1024hz.mp3","response":null,"trial_type":"audio-keyboard-response","trial_index":236,"time_elapsed":537886,"internal_node_id":"0.0-236.0","unixTimestamp":1705700680315},{"rt":null,"stimulus":"","response":null,"trial_type":"html-keyboard-response","trial_index":237,"time_elapsed":538143,"internal_node_id":"0.0-237.0","unixTimestamp":1705700680572},{"rt":null,"stimulus":"+","response":null,"trial_type":"html-keyboard-response","trial_index":238,"time_elapsed":538646,"internal_node_id":"0.0-238.0","unixTimestamp":1705700681075},{"rt":null,"stimulus":"./assets/sounds/1024hz.mp3","response":null,"trial_type":"audio-keyboard-response","trial_index":239,"time_elapsed":539144,"internal_node_id":"0.0-239.0","unixTimestamp":1705700681573},{"rt":null,"stimulus":"","response":null,"trial_type":"html-keyboard-response","trial_index":240,"time_elapsed":539396,"internal_node_id":"0.0-240.0","unixTimestamp":1705700681825},{"rt":null,"stimulus":"+","response":null,"trial_type":"html-keyboard-response","trial_index":241,"time_elapsed":539899,"internal_node_id":"0.0-241.0","unixTimestamp":1705700682328},{"rt":null,"stimulus":"./assets/sounds/1920hz.mp3","response":null,"trial_type":"audio-keyboard-response","trial_index":242,"time_elapsed":540401,"internal_node_id":"0.0-242.0","unixTimestamp":1705700682830},{"rt":null,"stimulus":"","response":null,"trial_type":"html-keyboard-response","trial_index":243,"time_elapsed":540653,"internal_node_id":"0.0-243.0","unixTimestamp":1705700683082},{"rt":null,"stimulus":"+","response":null,"trial_type":"html-keyboard-response","trial_index":244,"time_elapsed":541159,"internal_node_id":"0.0-244.0","unixTimestamp":1705700683588},{"rt":null,"stimulus":"./assets/sounds/1024hz.mp3","response":null,"trial_type":"audio-keyboard-response","trial_index":245,"time_elapsed":541659,"internal_node_id":"0.0-245.0","unixTimestamp":1705700684088},{"rt":null,"stimulus":"","response":null,"trial_type":"html-keyboard-response","trial_index":246,"time_elapsed":541914,"internal_node_id":"0.0-246.0","unixTimestamp":1705700684343},{"rt":null,"stimulus":"+","response":null,"trial_type":"html-keyboard-response","trial_index":247,"time_elapsed":542415,"internal_node_id":"0.0-247.0","unixTimestamp":1705700684844},{"rt":null,"stimulus":"./assets/sounds/1024hz.mp3","response":null,"trial_type":"audio-keyboard-response","trial_index":248,"time_elapsed":542916,"internal_node_id":"0.0-248.0","unixTimestamp":1705700685345},{"rt":null,"stimulus":"","response":null,"trial_type":"html-keyboard-response","trial_index":249,"time_elapsed":543168,"internal_node_id":"0.0-249.0","unixTimestamp":1705700685597},{"rt":null,"stimulus":"+","response":null,"trial_type":"html-keyboard-response","trial_index":250,"time_elapsed":543674,"internal_node_id":"0.0-250.0","unixTimestamp":1705700686103},{"rt":null,"stimulus":"./assets/sounds/1024hz.mp3","response":null,"trial_type":"audio-keyboard-response","trial_index":251,"time_elapsed":544174,"internal_node_id":"0.0-251.0","unixTimestamp":1705700686603},{"rt":null,"stimulus":"","response":null,"trial_type":"html-keyboard-response","trial_index":252,"time_elapsed":544427,"internal_node_id":"0.0-252.0","unixTimestamp":1705700686856},{"rt":null,"stimulus":"+","response":null,"trial_type":"html-keyboard-response","trial_index":253,"time_elapsed":544934,"internal_node_id":"0.0-253.0","unixTimestamp":1705700687363},{"rt":null,"stimulus":"./assets/sounds/1024hz.mp3","response":null,"trial_type":"audio-keyboard-response","trial_index":254,"time_elapsed":545432,"internal_node_id":"0.0-254.0","unixTimestamp":1705700687861},{"rt":null,"stimulus":"","response":null,"trial_type":"html-keyboard-response","trial_index":255,"time_elapsed":545683,"internal_node_id":"0.0-255.0","unixTimestamp":1705700688112},{"rt":null,"stimulus":"+","response":null,"trial_type":"html-keyboard-response","trial_index":256,"time_elapsed":546187,"internal_node_id":"0.0-256.0","unixTimestamp":1705700688616},{"rt":null,"stimulus":"./assets/sounds/1920hz.mp3","response":null,"trial_type":"audio-keyboard-response","trial_index":257,"time_elapsed":546689,"internal_node_id":"0.0-257.0","unixTimestamp":1705700689118},{"rt":null,"stimulus":"","response":null,"trial_type":"html-keyboard-response","trial_index":258,"time_elapsed":546951,"internal_node_id":"0.0-258.0","unixTimestamp":1705700689380},{"rt":null,"stimulus":"+","response":null,"trial_type":"html-keyboard-response","trial_index":259,"time_elapsed":547454,"internal_node_id":"0.0-259.0","unixTimestamp":1705700689883},{"rt":null,"stimulus":"./assets/sounds/1024hz.mp3","response":null,"trial_type":"audio-keyboard-response","trial_index":260,"time_elapsed":547952,"internal_node_id":"0.0-260.0","unixTimestamp":1705700690381},{"rt":null,"stimulus":"","response":null,"trial_type":"html-keyboard-response","trial_index":261,"time_elapsed":548204,"internal_node_id":"0.0-261.0","unixTimestamp":1705700690633},{"rt":null,"stimulus":"+","response":null,"trial_type":"html-keyboard-response","trial_index":262,"time_elapsed":548705,"internal_node_id":"0.0-262.0","unixTimestamp":1705700691134},{"rt":null,"stimulus":"./assets/sounds/1024hz.mp3","response":null,"trial_type":"audio-keyboard-response","trial_index":263,"time_elapsed":549205,"internal_node_id":"0.0-263.0","unixTimestamp":1705700691634},{"rt":null,"stimulus":"","response":null,"trial_type":"html-keyboard-response","trial_index":264,"time_elapsed":549459,"internal_node_id":"0.0-264.0","unixTimestamp":1705700691888},{"rt":null,"stimulus":"+","response":null,"trial_type":"html-keyboard-response","trial_index":265,"time_elapsed":549965,"internal_node_id":"0.0-265.0","unixTimestamp":1705700692394},{"rt":null,"stimulus":"./assets/sounds/1024hz.mp3","response":null,"trial_type":"audio-keyboard-response","trial_index":266,"time_elapsed":550462,"internal_node_id":"0.0-266.0","unixTimestamp":1705700692891},{"rt":null,"stimulus":"","response":null,"trial_type":"html-keyboard-response","trial_index":267,"time_elapsed":550714,"internal_node_id":"0.0-267.0","unixTimestamp":1705700693143},{"rt":null,"stimulus":"+","response":null,"trial_type":"html-keyboard-response","trial_index":268,"time_elapsed":551218,"internal_node_id":"0.0-268.0","unixTimestamp":1705700693647},{"rt":null,"stimulus":"./assets/sounds/1024hz.mp3","response":null,"trial_type":"audio-keyboard-response","trial_index":269,"time_elapsed":551715,"internal_node_id":"0.0-269.0","unixTimestamp":1705700694144},{"rt":null,"stimulus":"","response":null,"trial_type":"html-keyboard-response","trial_index":270,"time_elapsed":551971,"internal_node_id":"0.0-270.0","unixTimestamp":1705700694400},{"rt":null,"stimulus":"+","response":null,"trial_type":"html-keyboard-response","trial_index":271,"time_elapsed":552476,"internal_node_id":"0.0-271.0","unixTimestamp":1705700694905},{"rt":null,"stimulus":"./assets/sounds/1024hz.mp3","response":null,"trial_type":"audio-keyboard-response","trial_index":272,"time_elapsed":552982,"internal_node_id":"0.0-272.0","unixTimestamp":1705700695411},{"rt":null,"stimulus":"","response":null,"trial_type":"html-keyboard-response","trial_index":273,"time_elapsed":553234,"internal_node_id":"0.0-273.0","unixTimestamp":1705700695663},{"rt":null,"stimulus":"+","response":null,"trial_type":"html-keyboard-response","trial_index":274,"time_elapsed":553736,"internal_node_id":"0.0-274.0","unixTimestamp":1705700696165},{"rt":null,"stimulus":"./assets/sounds/1024hz.mp3","response":null,"trial_type":"audio-keyboard-response","trial_index":275,"time_elapsed":554235,"internal_node_id":"0.0-275.0","unixTimestamp":1705700696664},{"rt":null,"stimulus":"","response":null,"trial_type":"html-keyboard-response","trial_index":276,"time_elapsed":554488,"internal_node_id":"0.0-276.0","unixTimestamp":1705700696917},{"rt":null,"stimulus":"+","response":null,"trial_type":"html-keyboard-response","trial_index":277,"time_elapsed":554991,"internal_node_id":"0.0-277.0","unixTimestamp":1705700697420},{"rt":null,"stimulus":"./assets/sounds/1024hz.mp3","response":null,"trial_type":"audio-keyboard-response","trial_index":278,"time_elapsed":555492,"internal_node_id":"0.0-278.0","unixTimestamp":1705700697921},{"rt":null,"stimulus":"","response":null,"trial_type":"html-keyboard-response","trial_index":279,"time_elapsed":555751,"internal_node_id":"0.0-279.0","unixTimestamp":1705700698180},{"rt":null,"stimulus":"+","response":null,"trial_type":"html-keyboard-response","trial_index":280,"time_elapsed":556254,"internal_node_id":"0.0-280.0","unixTimestamp":1705700698683},{"rt":null,"stimulus":"./assets/sounds/1024hz.mp3","response":null,"trial_type":"audio-keyboard-response","trial_index":281,"time_elapsed":556755,"internal_node_id":"0.0-281.0","unixTimestamp":1705700699184},{"rt":null,"stimulus":"","response":null,"trial_type":"html-keyboard-response","trial_index":282,"time_elapsed":557011,"internal_node_id":"0.0-282.0","unixTimestamp":1705700699440},{"rt":null,"stimulus":"+","response":null,"trial_type":"html-keyboard-response","trial_index":283,"time_elapsed":557516,"internal_node_id":"0.0-283.0","unixTimestamp":1705700699945},{"rt":null,"stimulus":"./assets/sounds/1024hz.mp3","response":null,"trial_type":"audio-keyboard-response","trial_index":284,"time_elapsed":558013,"internal_node_id":"0.0-284.0","unixTimestamp":1705700700442},{"rt":null,"stimulus":"","response":null,"trial_type":"html-keyboard-response","trial_index":285,"time_elapsed":558265,"internal_node_id":"0.0-285.0","unixTimestamp":1705700700694},{"rt":null,"stimulus":"+","response":null,"trial_type":"html-keyboard-response","trial_index":286,"time_elapsed":558767,"internal_node_id":"0.0-286.0","unixTimestamp":1705700701196},{"rt":null,"stimulus":"./assets/sounds/1024hz.mp3","response":null,"trial_type":"audio-keyboard-response","trial_index":287,"time_elapsed":559271,"internal_node_id":"0.0-287.0","unixTimestamp":1705700701700},{"rt":null,"stimulus":"","response":null,"trial_type":"html-keyboard-response","trial_index":288,"time_elapsed":559524,"internal_node_id":"0.0-288.0","unixTimestamp":1705700701953},{"rt":null,"stimulus":"+","response":null,"trial_type":"html-keyboard-response","trial_index":289,"time_elapsed":560025,"internal_node_id":"0.0-289.0","unixTimestamp":1705700702454},{"rt":null,"stimulus":"./assets/sounds/1024hz.mp3","response":null,"trial_type":"audio-keyboard-response","trial_index":290,"time_elapsed":560523,"internal_node_id":"0.0-290.0","unixTimestamp":1705700702952},{"rt":null,"stimulus":"","response":null,"trial_type":"html-keyboard-response","trial_index":291,"time_elapsed":560776,"internal_node_id":"0.0-291.0","unixTimestamp":1705700703205},{"rt":null,"stimulus":"+","response":null,"trial_type":"html-keyboard-response","trial_index":292,"time_elapsed":561279,"internal_node_id":"0.0-292.0","unixTimestamp":1705700703708},{"rt":null,"stimulus":"./assets/sounds/1920hz.mp3","response":null,"trial_type":"audio-keyboard-response","trial_index":293,"time_elapsed":561780,"internal_node_id":"0.0-293.0","unixTimestamp":1705700704209},{"rt":null,"stimulus":"","response":null,"trial_type":"html-keyboard-response","trial_index":294,"time_elapsed":562032,"internal_node_id":"0.0-294.0","unixTimestamp":1705700704461},{"rt":null,"stimulus":"+","response":null,"trial_type":"html-keyboard-response","trial_index":295,"time_elapsed":562534,"internal_node_id":"0.0-295.0","unixTimestamp":1705700704963},{"rt":null,"stimulus":"./assets/sounds/1024hz.mp3","response":null,"trial_type":"audio-keyboard-response","trial_index":296,"time_elapsed":563035,"internal_node_id":"0.0-296.0","unixTimestamp":1705700705464},{"rt":null,"stimulus":"","response":null,"trial_type":"html-keyboard-response","trial_index":297,"time_elapsed":563286,"internal_node_id":"0.0-297.0","unixTimestamp":1705700705715},{"rt":null,"stimulus":"+","response":null,"trial_type":"html-keyboard-response","trial_index":298,"time_elapsed":563788,"internal_node_id":"0.0-298.0","unixTimestamp":1705700706217},{"rt":null,"stimulus":"./assets/sounds/1024hz.mp3","response":null,"trial_type":"audio-keyboard-response","trial_index":299,"time_elapsed":564285,"internal_node_id":"0.0-299.0","unixTimestamp":1705700706714},{"rt":null,"stimulus":"","response":null,"trial_type":"html-keyboard-response","trial_index":300,"time_elapsed":564536,"internal_node_id":"0.0-300.0","unixTimestamp":1705700706965},{"rt":null,"stimulus":"+","response":null,"trial_type":"html-keyboard-response","trial_index":301,"time_elapsed":565039,"internal_node_id":"0.0-301.0","unixTimestamp":1705700707468},{"rt":null,"stimulus":"./assets/sounds/1024hz.mp3","response":null,"trial_type":"audio-keyboard-response","trial_index":302,"time_elapsed":565542,"internal_node_id":"0.0-302.0","unixTimestamp":1705700707971},{"rt":null,"stimulus":"","response":null,"trial_type":"html-keyboard-response","trial_index":303,"time_elapsed":565794,"internal_node_id":"0.0-303.0","unixTimestamp":1705700708223},{"rt":null,"stimulus":"+","response":null,"trial_type":"html-keyboard-response","trial_index":304,"time_elapsed":566299,"internal_node_id":"0.0-304.0","unixTimestamp":1705700708728},{"rt":null,"stimulus":"./assets/sounds/1024hz.mp3","response":null,"trial_type":"audio-keyboard-response","trial_index":305,"time_elapsed":566800,"internal_node_id":"0.0-305.0","unixTimestamp":1705700709229},{"rt":null,"stimulus":"","response":null,"trial_type":"html-keyboard-response","trial_index":306,"time_elapsed":567056,"internal_node_id":"0.0-306.0","unixTimestamp":1705700709485},{"rt":null,"stimulus":"+","response":null,"trial_type":"html-keyboard-response","trial_index":307,"time_elapsed":567559,"internal_node_id":"0.0-307.0","unixTimestamp":1705700709988},{"rt":null,"stimulus":"./assets/sounds/1024hz.mp3","response":null,"trial_type":"audio-keyboard-response","trial_index":308,"time_elapsed":568058,"internal_node_id":"0.0-308.0","unixTimestamp":1705700710487},{"rt":null,"stimulus":"","response":null,"trial_type":"html-keyboard-response","trial_index":309,"time_elapsed":568310,"internal_node_id":"0.0-309.0","unixTimestamp":1705700710739},{"rt":null,"stimulus":"+","response":null,"trial_type":"html-keyboard-response","trial_index":310,"time_elapsed":568813,"internal_node_id":"0.0-310.0","unixTimestamp":1705700711242},{"rt":null,"stimulus":"./assets/sounds/1024hz.mp3","response":null,"trial_type":"audio-keyboard-response","trial_index":311,"time_elapsed":569310,"internal_node_id":"0.0-311.0","unixTimestamp":1705700711739},{"rt":null,"stimulus":"","response":null,"trial_type":"html-keyboard-response","trial_index":312,"time_elapsed":569571,"internal_node_id":"0.0-312.0","unixTimestamp":1705700712000},{"rt":null,"stimulus":"+","response":null,"trial_type":"html-keyboard-response","trial_index":313,"time_elapsed":570074,"internal_node_id":"0.0-313.0","unixTimestamp":1705700712503},{"rt":null,"stimulus":"./assets/sounds/1024hz.mp3","response":null,"trial_type":"audio-keyboard-response","trial_index":314,"time_elapsed":570573,"internal_node_id":"0.0-314.0","unixTimestamp":1705700713002},{"rt":null,"stimulus":"","response":null,"trial_type":"html-keyboard-response","trial_index":315,"time_elapsed":570824,"internal_node_id":"0.0-315.0","unixTimestamp":1705700713253},{"rt":null,"stimulus":"+","response":null,"trial_type":"html-keyboard-response","trial_index":316,"time_elapsed":571327,"internal_node_id":"0.0-316.0","unixTimestamp":1705700713756},{"rt":null,"stimulus":"./assets/sounds/1024hz.mp3","response":null,"trial_type":"audio-keyboard-response","trial_index":317,"time_elapsed":571831,"internal_node_id":"0.0-317.0","unixTimestamp":1705700714260},{"rt":null,"stimulus":"","response":null,"trial_type":"html-keyboard-response","trial_index":318,"time_elapsed":572082,"internal_node_id":"0.0-318.0","unixTimestamp":1705700714511},{"rt":null,"stimulus":"+","response":null,"trial_type":"html-keyboard-response","trial_index":319,"time_elapsed":572586,"internal_node_id":"0.0-319.0","unixTimestamp":1705700715015},{"rt":null,"stimulus":"./assets/sounds/1920hz.mp3","response":null,"trial_type":"audio-keyboard-response","trial_index":320,"time_elapsed":573083,"internal_node_id":"0.0-320.0","unixTimestamp":1705700715512},{"rt":null,"stimulus":"","response":null,"trial_type":"html-keyboard-response","trial_index":321,"time_elapsed":573335,"internal_node_id":"0.0-321.0","unixTimestamp":1705700715764},{"rt":null,"stimulus":"+","response":null,"trial_type":"html-keyboard-response","trial_index":322,"time_elapsed":573838,"internal_node_id":"0.0-322.0","unixTimestamp":1705700716267},{"rt":null,"stimulus":"./assets/sounds/1024hz.mp3","response":null,"trial_type":"audio-keyboard-response","trial_index":323,"time_elapsed":574335,"internal_node_id":"0.0-323.0","unixTimestamp":1705700716764},{"rt":null,"stimulus":"","response":null,"trial_type":"html-keyboard-response","trial_index":324,"time_elapsed":574590,"internal_node_id":"0.0-324.0","unixTimestamp":1705700717019},{"rt":null,"stimulus":"+","response":null,"trial_type":"html-keyboard-response","trial_index":325,"time_elapsed":575097,"internal_node_id":"0.0-325.0","unixTimestamp":1705700717526},{"rt":null,"stimulus":"./assets/sounds/1024hz.mp3","response":null,"trial_type":"audio-keyboard-response","trial_index":326,"time_elapsed":575598,"internal_node_id":"0.0-326.0","unixTimestamp":1705700718027},{"rt":null,"stimulus":"","response":null,"trial_type":"html-keyboard-response","trial_index":327,"time_elapsed":575849,"internal_node_id":"0.0-327.0","unixTimestamp":1705700718278},{"rt":null,"stimulus":"+","response":null,"trial_type":"html-keyboard-response","trial_index":328,"time_elapsed":576357,"internal_node_id":"0.0-328.0","unixTimestamp":1705700718786},{"rt":null,"stimulus":"./assets/sounds/1024hz.mp3","response":null,"trial_type":"audio-keyboard-response","trial_index":329,"time_elapsed":576856,"internal_node_id":"0.0-329.0","unixTimestamp":1705700719285},{"rt":null,"stimulus":"","response":null,"trial_type":"html-keyboard-response","trial_index":330,"time_elapsed":577109,"internal_node_id":"0.0-330.0","unixTimestamp":1705700719538},{"rt":null,"stimulus":"+","response":null,"trial_type":"html-keyboard-response","trial_index":331,"time_elapsed":577612,"internal_node_id":"0.0-331.0","unixTimestamp":1705700720041},{"rt":null,"stimulus":"./assets/sounds/1024hz.mp3","response":null,"trial_type":"audio-keyboard-response","trial_index":332,"time_elapsed":578119,"internal_node_id":"0.0-332.0","unixTimestamp":1705700720548},{"rt":null,"stimulus":"","response":null,"trial_type":"html-keyboard-response","trial_index":333,"time_elapsed":578373,"internal_node_id":"0.0-333.0","unixTimestamp":1705700720802},{"rt":null,"stimulus":"+","response":null,"trial_type":"html-keyboard-response","trial_index":334,"time_elapsed":578875,"internal_node_id":"0.0-334.0","unixTimestamp":1705700721304},{"rt":null,"stimulus":"./assets/sounds/1024hz.mp3","response":null,"trial_type":"audio-keyboard-response","trial_index":335,"time_elapsed":579377,"internal_node_id":"0.0-335.0","unixTimestamp":1705700721806},{"rt":null,"stimulus":"","response":null,"trial_type":"html-keyboard-response","trial_index":336,"time_elapsed":579629,"internal_node_id":"0.0-336.0","unixTimestamp":1705700722058},{"rt":null,"stimulus":"+","response":null,"trial_type":"html-keyboard-response","trial_index":337,"time_elapsed":580130,"internal_node_id":"0.0-337.0","unixTimestamp":1705700722559},{"rt":null,"stimulus":"./assets/sounds/1024hz.mp3","response":null,"trial_type":"audio-keyboard-response","trial_index":338,"time_elapsed":580628,"internal_node_id":"0.0-338.0","unixTimestamp":1705700723057},{"rt":null,"stimulus":"","response":null,"trial_type":"html-keyboard-response","trial_index":339,"time_elapsed":580886,"internal_node_id":"0.0-339.0","unixTimestamp":1705700723315},{"rt":null,"stimulus":"+","response":null,"trial_type":"html-keyboard-response","trial_index":340,"time_elapsed":581389,"internal_node_id":"0.0-340.0","unixTimestamp":1705700723818},{"rt":null,"stimulus":"./assets/sounds/1024hz.mp3","response":null,"trial_type":"audio-keyboard-response","trial_index":341,"time_elapsed":581891,"internal_node_id":"0.0-341.0","unixTimestamp":1705700724320},{"rt":null,"stimulus":"","response":null,"trial_type":"html-keyboard-response","trial_index":342,"time_elapsed":582144,"internal_node_id":"0.0-342.0","unixTimestamp":1705700724573},{"rt":null,"stimulus":"+","response":null,"trial_type":"html-keyboard-response","trial_index":343,"time_elapsed":582645,"internal_node_id":"0.0-343.0","unixTimestamp":1705700725074},{"rt":null,"stimulus":"./assets/sounds/1920hz.mp3","response":null,"trial_type":"audio-keyboard-response","trial_index":344,"time_elapsed":583144,"internal_node_id":"0.0-344.0","unixTimestamp":1705700725573},{"rt":null,"stimulus":"","response":null,"trial_type":"html-keyboard-response","trial_index":345,"time_elapsed":583396,"internal_node_id":"0.0-345.0","unixTimestamp":1705700725825},{"rt":null,"stimulus":"+","response":null,"trial_type":"html-keyboard-response","trial_index":346,"time_elapsed":583898,"internal_node_id":"0.0-346.0","unixTimestamp":1705700726327},{"rt":null,"stimulus":"./assets/sounds/1024hz.mp3","response":null,"trial_type":"audio-keyboard-response","trial_index":347,"time_elapsed":584401,"internal_node_id":"0.0-347.0","unixTimestamp":1705700726830},{"rt":null,"stimulus":"","response":null,"trial_type":"html-keyboard-response","trial_index":348,"time_elapsed":584657,"internal_node_id":"0.0-348.0","unixTimestamp":1705700727086},{"rt":null,"stimulus":"+","response":null,"trial_type":"html-keyboard-response","trial_index":349,"time_elapsed":585160,"internal_node_id":"0.0-349.0","unixTimestamp":1705700727589},{"rt":null,"stimulus":"./assets/sounds/1024hz.mp3","response":null,"trial_type":"audio-keyboard-response","trial_index":350,"time_elapsed":585661,"internal_node_id":"0.0-350.0","unixTimestamp":1705700728090},{"rt":null,"stimulus":"","response":null,"trial_type":"html-keyboard-response","trial_index":351,"time_elapsed":585914,"internal_node_id":"0.0-351.0","unixTimestamp":1705700728343},{"rt":null,"stimulus":"+","response":null,"trial_type":"html-keyboard-response","trial_index":352,"time_elapsed":586417,"internal_node_id":"0.0-352.0","unixTimestamp":1705700728846},{"rt":null,"stimulus":"./assets/sounds/1024hz.mp3","response":null,"trial_type":"audio-keyboard-response","trial_index":353,"time_elapsed":586916,"internal_node_id":"0.0-353.0","unixTimestamp":1705700729345},{"rt":null,"stimulus":"","response":null,"trial_type":"html-keyboard-response","trial_index":354,"time_elapsed":587169,"internal_node_id":"0.0-354.0","unixTimestamp":1705700729598},{"rt":null,"stimulus":"+","response":null,"trial_type":"html-keyboard-response","trial_index":355,"time_elapsed":587675,"internal_node_id":"0.0-355.0","unixTimestamp":1705700730104},{"rt":null,"stimulus":"./assets/sounds/1024hz.mp3","response":null,"trial_type":"audio-keyboard-response","trial_index":356,"time_elapsed":588176,"internal_node_id":"0.0-356.0","unixTimestamp":1705700730605},{"rt":null,"stimulus":"","response":null,"trial_type":"html-keyboard-response","trial_index":357,"time_elapsed":588426,"internal_node_id":"0.0-357.0","unixTimestamp":1705700730855},{"rt":null,"stimulus":"+","response":null,"trial_type":"html-keyboard-response","trial_index":358,"time_elapsed":588931,"internal_node_id":"0.0-358.0","unixTimestamp":1705700731360},{"rt":null,"stimulus":"./assets/sounds/1024hz.mp3","response":null,"trial_type":"audio-keyboard-response","trial_index":359,"time_elapsed":589432,"internal_node_id":"0.0-359.0","unixTimestamp":1705700731861},{"rt":null,"stimulus":"","response":null,"trial_type":"html-keyboard-response","trial_index":360,"time_elapsed":589683,"internal_node_id":"0.0-360.0","unixTimestamp":1705700732112},{"rt":null,"stimulus":"+","response":null,"trial_type":"html-keyboard-response","trial_index":361,"time_elapsed":590186,"internal_node_id":"0.0-361.0","unixTimestamp":1705700732615},{"rt":null,"stimulus":"./assets/sounds/1920hz.mp3","response":null,"trial_type":"audio-keyboard-response","trial_index":362,"time_elapsed":590689,"internal_node_id":"0.0-362.0","unixTimestamp":1705700733118},{"rt":null,"stimulus":"","response":null,"trial_type":"html-keyboard-response","trial_index":363,"time_elapsed":590942,"internal_node_id":"0.0-363.0","unixTimestamp":1705700733371},{"rt":null,"stimulus":"+","response":null,"trial_type":"html-keyboard-response","trial_index":364,"time_elapsed":591449,"internal_node_id":"0.0-364.0","unixTimestamp":1705700733878},{"rt":null,"stimulus":"./assets/sounds/1024hz.mp3","response":null,"trial_type":"audio-keyboard-response","trial_index":365,"time_elapsed":591947,"internal_node_id":"0.0-365.0","unixTimestamp":1705700734376},{"rt":null,"stimulus":"","response":null,"trial_type":"html-keyboard-response","trial_index":366,"time_elapsed":592199,"internal_node_id":"0.0-366.0","unixTimestamp":1705700734628},{"rt":null,"stimulus":"+","response":null,"trial_type":"html-keyboard-response","trial_index":367,"time_elapsed":592701,"internal_node_id":"0.0-367.0","unixTimestamp":1705700735130},{"rt":null,"stimulus":"./assets/sounds/1024hz.mp3","response":null,"trial_type":"audio-keyboard-response","trial_index":368,"time_elapsed":593199,"internal_node_id":"0.0-368.0","unixTimestamp":1705700735628},{"rt":null,"stimulus":"","response":null,"trial_type":"html-keyboard-response","trial_index":369,"time_elapsed":593451,"internal_node_id":"0.0-369.0","unixTimestamp":1705700735880},{"rt":null,"stimulus":"+","response":null,"trial_type":"html-keyboard-response","trial_index":370,"time_elapsed":593956,"internal_node_id":"0.0-370.0","unixTimestamp":1705700736385},{"rt":null,"stimulus":"./assets/sounds/1024hz.mp3","response":null,"trial_type":"audio-keyboard-response","trial_index":371,"time_elapsed":594456,"internal_node_id":"0.0-371.0","unixTimestamp":1705700736885},{"rt":null,"stimulus":"","response":null,"trial_type":"html-keyboard-response","trial_index":372,"time_elapsed":594712,"internal_node_id":"0.0-372.0","unixTimestamp":1705700737141},{"rt":null,"stimulus":"+","response":null,"trial_type":"html-keyboard-response","trial_index":373,"time_elapsed":595214,"internal_node_id":"0.0-373.0","unixTimestamp":1705700737643},{"rt":null,"stimulus":"./assets/sounds/1024hz.mp3","response":null,"trial_type":"audio-keyboard-response","trial_index":374,"time_elapsed":595714,"internal_node_id":"0.0-374.0","unixTimestamp":1705700738143},{"rt":null,"stimulus":"","response":null,"trial_type":"html-keyboard-response","trial_index":375,"time_elapsed":595969,"internal_node_id":"0.0-375.0","unixTimestamp":1705700738398},{"rt":null,"stimulus":"+","response":null,"trial_type":"html-keyboard-response","trial_index":376,"time_elapsed":596472,"internal_node_id":"0.0-376.0","unixTimestamp":1705700738901},{"rt":null,"stimulus":"./assets/sounds/1024hz.mp3","response":null,"trial_type":"audio-keyboard-response","trial_index":377,"time_elapsed":596977,"internal_node_id":"0.0-377.0","unixTimestamp":1705700739406},{"rt":null,"stimulus":"","response":null,"trial_type":"html-keyboard-response","trial_index":378,"time_elapsed":597230,"internal_node_id":"0.0-378.0","unixTimestamp":1705700739659},{"rt":null,"stimulus":"+","response":null,"trial_type":"html-keyboard-response","trial_index":379,"time_elapsed":597732,"internal_node_id":"0.0-379.0","unixTimestamp":1705700740161},{"rt":null,"stimulus":"./assets/sounds/1024hz.mp3","response":null,"trial_type":"audio-keyboard-response","trial_index":380,"time_elapsed":598232,"internal_node_id":"0.0-380.0","unixTimestamp":1705700740661},{"rt":null,"stimulus":"","response":null,"trial_type":"html-keyboard-response","trial_index":381,"time_elapsed":598484,"internal_node_id":"0.0-381.0","unixTimestamp":1705700740913},{"rt":null,"stimulus":"+","response":null,"trial_type":"html-keyboard-response","trial_index":382,"time_elapsed":598988,"internal_node_id":"0.0-382.0","unixTimestamp":1705700741417},{"rt":null,"stimulus":"./assets/sounds/1024hz.mp3","response":null,"trial_type":"audio-keyboard-response","trial_index":383,"time_elapsed":599487,"internal_node_id":"0.0-383.0","unixTimestamp":1705700741916},{"rt":null,"stimulus":"","response":null,"trial_type":"html-keyboard-response","trial_index":384,"time_elapsed":599743,"internal_node_id":"0.0-384.0","unixTimestamp":1705700742172},{"rt":null,"stimulus":"+","response":null,"trial_type":"html-keyboard-response","trial_index":385,"time_elapsed":600246,"internal_node_id":"0.0-385.0","unixTimestamp":1705700742675},{"rt":null,"stimulus":"./assets/sounds/1024hz.mp3","response":null,"trial_type":"audio-keyboard-response","trial_index":386,"time_elapsed":600745,"internal_node_id":"0.0-386.0","unixTimestamp":1705700743174},{"rt":null,"stimulus":"","response":null,"trial_type":"html-keyboard-response","trial_index":387,"time_elapsed":600996,"internal_node_id":"0.0-387.0","unixTimestamp":1705700743425},{"rt":null,"stimulus":"+","response":null,"trial_type":"html-keyboard-response","trial_index":388,"time_elapsed":601497,"internal_node_id":"0.0-388.0","unixTimestamp":1705700743926},{"rt":null,"stimulus":"./assets/sounds/1024hz.mp3","response":null,"trial_type":"audio-keyboard-response","trial_index":389,"time_elapsed":601997,"internal_node_id":"0.0-389.0","unixTimestamp":1705700744426},{"rt":null,"stimulus":"","response":null,"trial_type":"html-keyboard-response","trial_index":390,"time_elapsed":602249,"internal_node_id":"0.0-390.0","unixTimestamp":1705700744678},{"rt":null,"stimulus":"+","response":null,"trial_type":"html-keyboard-response","trial_index":391,"time_elapsed":602755,"internal_node_id":"0.0-391.0","unixTimestamp":1705700745184},{"rt":null,"stimulus":"./assets/sounds/1024hz.mp3","response":null,"trial_type":"audio-keyboard-response","trial_index":392,"time_elapsed":603260,"internal_node_id":"0.0-392.0","unixTimestamp":1705700745689},{"rt":null,"stimulus":"","response":null,"trial_type":"html-keyboard-response","trial_index":393,"time_elapsed":603512,"internal_node_id":"0.0-393.0","unixTimestamp":1705700745941},{"rt":null,"stimulus":"+","response":null,"trial_type":"html-keyboard-response","trial_index":394,"time_elapsed":604015,"internal_node_id":"0.0-394.0","unixTimestamp":1705700746444},{"rt":null,"stimulus":"./assets/sounds/1024hz.mp3","response":null,"trial_type":"audio-keyboard-response","trial_index":395,"time_elapsed":604512,"internal_node_id":"0.0-395.0","unixTimestamp":1705700746941},{"rt":null,"stimulus":"","response":null,"trial_type":"html-keyboard-response","trial_index":396,"time_elapsed":604768,"internal_node_id":"0.0-396.0","unixTimestamp":1705700747197},{"rt":null,"stimulus":"+","response":null,"trial_type":"html-keyboard-response","trial_index":397,"time_elapsed":605274,"internal_node_id":"0.0-397.0","unixTimestamp":1705700747703},{"rt":null,"stimulus":"./assets/sounds/1024hz.mp3","response":null,"trial_type":"audio-keyboard-response","trial_index":398,"time_elapsed":605775,"internal_node_id":"0.0-398.0","unixTimestamp":1705700748204},{"rt":null,"stimulus":"","response":null,"trial_type":"html-keyboard-response","trial_index":399,"time_elapsed":606027,"internal_node_id":"0.0-399.0","unixTimestamp":1705700748456},{"rt":null,"stimulus":"+","response":null,"trial_type":"html-keyboard-response","trial_index":400,"time_elapsed":606527,"internal_node_id":"0.0-400.0","unixTimestamp":1705700748956},{"rt":null,"stimulus":"./assets/sounds/1920hz.mp3","response":null,"trial_type":"audio-keyboard-response","trial_index":401,"time_elapsed":607027,"internal_node_id":"0.0-401.0","unixTimestamp":1705700749456},{"rt":null,"stimulus":"","response":null,"trial_type":"html-keyboard-response","trial_index":402,"time_elapsed":607283,"internal_node_id":"0.0-402.0","unixTimestamp":1705700749712},{"rt":null,"stimulus":"+","response":null,"trial_type":"html-keyboard-response","trial_index":403,"time_elapsed":607787,"internal_node_id":"0.0-403.0","unixTimestamp":1705700750216},{"rt":null,"stimulus":"./assets/sounds/1024hz.mp3","response":null,"trial_type":"audio-keyboard-response","trial_index":404,"time_elapsed":608285,"internal_node_id":"0.0-404.0","unixTimestamp":1705700750714},{"rt":null,"stimulus":"","response":null,"trial_type":"html-keyboard-response","trial_index":405,"time_elapsed":608536,"internal_node_id":"0.0-405.0","unixTimestamp":1705700750965},{"rt":null,"stimulus":"+","response":null,"trial_type":"html-keyboard-response","trial_index":406,"time_elapsed":609038,"internal_node_id":"0.0-406.0","unixTimestamp":1705700751467},{"rt":null,"stimulus":"./assets/sounds/1024hz.mp3","response":null,"trial_type":"audio-keyboard-response","trial_index":407,"time_elapsed":609542,"internal_node_id":"0.0-407.0","unixTimestamp":1705700751971},{"rt":null,"stimulus":"","response":null,"trial_type":"html-keyboard-response","trial_index":408,"time_elapsed":609795,"internal_node_id":"0.0-408.0","unixTimestamp":1705700752224},{"rt":null,"stimulus":"+","response":null,"trial_type":"html-keyboard-response","trial_index":409,"time_elapsed":610299,"internal_node_id":"0.0-409.0","unixTimestamp":1705700752728},{"rt":null,"stimulus":"./assets/sounds/1024hz.mp3","response":null,"trial_type":"audio-keyboard-response","trial_index":410,"time_elapsed":610800,"internal_node_id":"0.0-410.0","unixTimestamp":1705700753229},{"rt":null,"stimulus":"","response":null,"trial_type":"html-keyboard-response","trial_index":411,"time_elapsed":611052,"internal_node_id":"0.0-411.0","unixTimestamp":1705700753481},{"rt":null,"stimulus":"+","response":null,"trial_type":"html-keyboard-response","trial_index":412,"time_elapsed":611554,"internal_node_id":"0.0-412.0","unixTimestamp":1705700753983},{"rt":null,"stimulus":"./assets/sounds/1024hz.mp3","response":null,"trial_type":"audio-keyboard-response","trial_index":413,"time_elapsed":612052,"internal_node_id":"0.0-413.0","unixTimestamp":1705700754481},{"rt":null,"stimulus":"","response":null,"trial_type":"html-keyboard-response","trial_index":414,"time_elapsed":612304,"internal_node_id":"0.0-414.0","unixTimestamp":1705700754733},{"rt":null,"stimulus":"+","response":null,"trial_type":"html-keyboard-response","trial_index":415,"time_elapsed":612810,"internal_node_id":"0.0-415.0","unixTimestamp":1705700755239},{"rt":null,"stimulus":"./assets/sounds/1024hz.mp3","response":null,"trial_type":"audio-keyboard-response","trial_index":416,"time_elapsed":613310,"internal_node_id":"0.0-416.0","unixTimestamp":1705700755739},{"rt":null,"stimulus":"","response":null,"trial_type":"html-keyboard-response","trial_index":417,"time_elapsed":613562,"internal_node_id":"0.0-417.0","unixTimestamp":1705700755991},{"rt":null,"stimulus":"+","response":null,"trial_type":"html-keyboard-response","trial_index":418,"time_elapsed":614068,"internal_node_id":"0.0-418.0","unixTimestamp":1705700756497},{"rt":null,"stimulus":"./assets/sounds/1920hz.mp3","response":null,"trial_type":"audio-keyboard-response","trial_index":419,"time_elapsed":614568,"internal_node_id":"0.0-419.0","unixTimestamp":1705700756997},{"rt":null,"stimulus":"","response":null,"trial_type":"html-keyboard-response","trial_index":420,"time_elapsed":614821,"internal_node_id":"0.0-420.0","unixTimestamp":1705700757250},{"rt":null,"stimulus":"+","response":null,"trial_type":"html-keyboard-response","trial_index":421,"time_elapsed":615323,"internal_node_id":"0.0-421.0","unixTimestamp":1705700757752},{"rt":null,"stimulus":"./assets/sounds/1024hz.mp3","response":null,"trial_type":"audio-keyboard-response","trial_index":422,"time_elapsed":615825,"internal_node_id":"0.0-422.0","unixTimestamp":1705700758254},{"rt":null,"stimulus":"","response":null,"trial_type":"html-keyboard-response","trial_index":423,"time_elapsed":616077,"internal_node_id":"0.0-423.0","unixTimestamp":1705700758506},{"rt":null,"stimulus":"+","response":null,"trial_type":"html-keyboard-response","trial_index":424,"time_elapsed":616580,"internal_node_id":"0.0-424.0","unixTimestamp":1705700759009},{"rt":null,"stimulus":"./assets/sounds/1024hz.mp3","response":null,"trial_type":"audio-keyboard-response","trial_index":425,"time_elapsed":617078,"internal_node_id":"0.0-425.0","unixTimestamp":1705700759507},{"rt":null,"stimulus":"","response":null,"trial_type":"html-keyboard-response","trial_index":426,"time_elapsed":617331,"internal_node_id":"0.0-426.0","unixTimestamp":1705700759760},{"rt":null,"stimulus":"+","response":null,"trial_type":"html-keyboard-response","trial_index":427,"time_elapsed":617833,"internal_node_id":"0.0-427.0","unixTimestamp":1705700760262},{"rt":null,"stimulus":"./assets/sounds/1024hz.mp3","response":null,"trial_type":"audio-keyboard-response","trial_index":428,"time_elapsed":618330,"internal_node_id":"0.0-428.0","unixTimestamp":1705700760759},{"rt":null,"stimulus":"","response":null,"trial_type":"html-keyboard-response","trial_index":429,"time_elapsed":618583,"internal_node_id":"0.0-429.0","unixTimestamp":1705700761012},{"rt":null,"stimulus":"+","response":null,"trial_type":"html-keyboard-response","trial_index":430,"time_elapsed":619089,"internal_node_id":"0.0-430.0","unixTimestamp":1705700761518},{"rt":null,"stimulus":"./assets/sounds/1024hz.mp3","response":null,"trial_type":"audio-keyboard-response","trial_index":431,"time_elapsed":619587,"internal_node_id":"0.0-431.0","unixTimestamp":1705700762016},{"rt":null,"stimulus":"","response":null,"trial_type":"html-keyboard-response","trial_index":432,"time_elapsed":619841,"internal_node_id":"0.0-432.0","unixTimestamp":1705700762270},{"rt":null,"stimulus":"+","response":null,"trial_type":"html-keyboard-response","trial_index":433,"time_elapsed":620346,"internal_node_id":"0.0-433.0","unixTimestamp":1705700762775},{"rt":null,"stimulus":"./assets/sounds/1024hz.mp3","response":null,"trial_type":"audio-keyboard-response","trial_index":434,"time_elapsed":620845,"internal_node_id":"0.0-434.0","unixTimestamp":1705700763274},{"rt":null,"stimulus":"","response":null,"trial_type":"html-keyboard-response","trial_index":435,"time_elapsed":621095,"internal_node_id":"0.0-435.0","unixTimestamp":1705700763524},{"rt":null,"stimulus":"+","response":null,"trial_type":"html-keyboard-response","trial_index":436,"time_elapsed":621598,"internal_node_id":"0.0-436.0","unixTimestamp":1705700764027},{"rt":null,"stimulus":"./assets/sounds/1024hz.mp3","response":null,"trial_type":"audio-keyboard-response","trial_index":437,"time_elapsed":622103,"internal_node_id":"0.0-437.0","unixTimestamp":1705700764532},{"rt":null,"stimulus":"","response":null,"trial_type":"html-keyboard-response","trial_index":438,"time_elapsed":622354,"internal_node_id":"0.0-438.0","unixTimestamp":1705700764783},{"rt":null,"stimulus":"+","response":null,"trial_type":"html-keyboard-response","trial_index":439,"time_elapsed":622858,"internal_node_id":"0.0-439.0","unixTimestamp":1705700765287},{"rt":null,"stimulus":"./assets/sounds/1024hz.mp3","response":null,"trial_type":"audio-keyboard-response","trial_index":440,"time_elapsed":623355,"internal_node_id":"0.0-440.0","unixTimestamp":1705700765784},{"rt":null,"stimulus":"","response":null,"trial_type":"html-keyboard-response","trial_index":441,"time_elapsed":623606,"internal_node_id":"0.0-441.0","unixTimestamp":1705700766035},{"rt":null,"stimulus":"+","response":null,"trial_type":"html-keyboard-response","trial_index":442,"time_elapsed":624111,"internal_node_id":"0.0-442.0","unixTimestamp":1705700766540},{"rt":null,"stimulus":"./assets/sounds/1920hz.mp3","response":null,"trial_type":"audio-keyboard-response","trial_index":443,"time_elapsed":624612,"internal_node_id":"0.0-443.0","unixTimestamp":1705700767041},{"rt":null,"stimulus":"","response":null,"trial_type":"html-keyboard-response","trial_index":444,"time_elapsed":624864,"internal_node_id":"0.0-444.0","unixTimestamp":1705700767293},{"rt":null,"stimulus":"+","response":null,"trial_type":"html-keyboard-response","trial_index":445,"time_elapsed":625369,"internal_node_id":"0.0-445.0","unixTimestamp":1705700767798},{"rt":null,"stimulus":"./assets/sounds/1024hz.mp3","response":null,"trial_type":"audio-keyboard-response","trial_index":446,"time_elapsed":625870,"internal_node_id":"0.0-446.0","unixTimestamp":1705700768299},{"rt":null,"stimulus":"","response":null,"trial_type":"html-keyboard-response","trial_index":447,"time_elapsed":626122,"internal_node_id":"0.0-447.0","unixTimestamp":1705700768551},{"rt":null,"stimulus":"+","response":null,"trial_type":"html-keyboard-response","trial_index":448,"time_elapsed":626624,"internal_node_id":"0.0-448.0","unixTimestamp":1705700769053},{"rt":null,"stimulus":"./assets/sounds/1024hz.mp3","response":null,"trial_type":"audio-keyboard-response","trial_index":449,"time_elapsed":627122,"internal_node_id":"0.0-449.0","unixTimestamp":1705700769551},{"rt":null,"stimulus":"","response":null,"trial_type":"html-keyboard-response","trial_index":450,"time_elapsed":627374,"internal_node_id":"0.0-450.0","unixTimestamp":1705700769803},{"rt":null,"stimulus":"+","response":null,"trial_type":"html-keyboard-response","trial_index":451,"time_elapsed":627876,"internal_node_id":"0.0-451.0","unixTimestamp":1705700770305},{"rt":null,"stimulus":"./assets/sounds/1024hz.mp3","response":null,"trial_type":"audio-keyboard-response","trial_index":452,"time_elapsed":628380,"internal_node_id":"0.0-452.0","unixTimestamp":1705700770809},{"rt":null,"stimulus":"","response":null,"trial_type":"html-keyboard-response","trial_index":453,"time_elapsed":628630,"internal_node_id":"0.0-453.0","unixTimestamp":1705700771059},{"rt":null,"stimulus":"+","response":null,"trial_type":"html-keyboard-response","trial_index":454,"time_elapsed":629133,"internal_node_id":"0.0-454.0","unixTimestamp":1705700771562},{"rt":null,"stimulus":"./assets/sounds/1024hz.mp3","response":null,"trial_type":"audio-keyboard-response","trial_index":455,"time_elapsed":629632,"internal_node_id":"0.0-455.0","unixTimestamp":1705700772061},{"rt":null,"stimulus":"","response":null,"trial_type":"html-keyboard-response","trial_index":456,"time_elapsed":629885,"internal_node_id":"0.0-456.0","unixTimestamp":1705700772314},{"rt":null,"stimulus":"+","response":null,"trial_type":"html-keyboard-response","trial_index":457,"time_elapsed":630387,"internal_node_id":"0.0-457.0","unixTimestamp":1705700772816},{"rt":null,"stimulus":"./assets/sounds/1024hz.mp3","response":null,"trial_type":"audio-keyboard-response","trial_index":458,"time_elapsed":630884,"internal_node_id":"0.0-458.0","unixTimestamp":1705700773313},{"rt":null,"stimulus":"","response":null,"trial_type":"html-keyboard-response","trial_index":459,"time_elapsed":631136,"internal_node_id":"0.0-459.0","unixTimestamp":1705700773565},{"rt":null,"stimulus":"+","response":null,"trial_type":"html-keyboard-response","trial_index":460,"time_elapsed":631638,"internal_node_id":"0.0-460.0","unixTimestamp":1705700774067},{"rt":null,"stimulus":"./assets/sounds/1024hz.mp3","response":null,"trial_type":"audio-keyboard-response","trial_index":461,"time_elapsed":632137,"internal_node_id":"0.0-461.0","unixTimestamp":1705700774566},{"rt":null,"stimulus":"","response":null,"trial_type":"html-keyboard-response","trial_index":462,"time_elapsed":632390,"internal_node_id":"0.0-462.0","unixTimestamp":1705700774819},{"rt":null,"stimulus":"+","response":null,"trial_type":"html-keyboard-response","trial_index":463,"time_elapsed":632892,"internal_node_id":"0.0-463.0","unixTimestamp":1705700775321},{"rt":null,"stimulus":"./assets/sounds/1024hz.mp3","response":null,"trial_type":"audio-keyboard-response","trial_index":464,"time_elapsed":633389,"internal_node_id":"0.0-464.0","unixTimestamp":1705700775818},{"rt":null,"stimulus":"","response":null,"trial_type":"html-keyboard-response","trial_index":465,"time_elapsed":633641,"internal_node_id":"0.0-465.0","unixTimestamp":1705700776070},{"rt":null,"stimulus":"+","response":null,"trial_type":"html-keyboard-response","trial_index":466,"time_elapsed":634146,"internal_node_id":"0.0-466.0","unixTimestamp":1705700776575},{"rt":null,"stimulus":"./assets/sounds/1024hz.mp3","response":null,"trial_type":"audio-keyboard-response","trial_index":467,"time_elapsed":634652,"internal_node_id":"0.0-467.0","unixTimestamp":1705700777081},{"rt":null,"stimulus":"","response":null,"trial_type":"html-keyboard-response","trial_index":468,"time_elapsed":634906,"internal_node_id":"0.0-468.0","unixTimestamp":1705700777335},{"rt":null,"stimulus":"+","response":null,"trial_type":"html-keyboard-response","trial_index":469,"time_elapsed":635411,"internal_node_id":"0.0-469.0","unixTimestamp":1705700777840},{"rt":null,"stimulus":"./assets/sounds/1024hz.mp3","response":null,"trial_type":"audio-keyboard-response","trial_index":470,"time_elapsed":635911,"internal_node_id":"0.0-470.0","unixTimestamp":1705700778340},{"rt":null,"stimulus":"","response":null,"trial_type":"html-keyboard-response","trial_index":471,"time_elapsed":636164,"internal_node_id":"0.0-471.0","unixTimestamp":1705700778593},{"rt":null,"stimulus":"+","response":null,"trial_type":"html-keyboard-response","trial_index":472,"time_elapsed":636667,"internal_node_id":"0.0-472.0","unixTimestamp":1705700779096},{"rt":null,"stimulus":"./assets/sounds/1024hz.mp3","response":null,"trial_type":"audio-keyboard-response","trial_index":473,"time_elapsed":637167,"internal_node_id":"0.0-473.0","unixTimestamp":1705700779596},{"rt":null,"stimulus":"","response":null,"trial_type":"html-keyboard-response","trial_index":474,"time_elapsed":637422,"internal_node_id":"0.0-474.0","unixTimestamp":1705700779851},{"rt":null,"stimulus":"+","response":null,"trial_type":"html-keyboard-response","trial_index":475,"time_elapsed":637925,"internal_node_id":"0.0-475.0","unixTimestamp":1705700780354},{"rt":null,"stimulus":"./assets/sounds/1024hz.mp3","response":null,"trial_type":"audio-keyboard-response","trial_index":476,"time_elapsed":638424,"internal_node_id":"0.0-476.0","unixTimestamp":1705700780853},{"rt":null,"stimulus":"","response":null,"trial_type":"html-keyboard-response","trial_index":477,"time_elapsed":638676,"internal_node_id":"0.0-477.0","unixTimestamp":1705700781105},{"rt":null,"stimulus":"+","response":null,"trial_type":"html-keyboard-response","trial_index":478,"time_elapsed":639181,"internal_node_id":"0.0-478.0","unixTimestamp":1705700781610},{"rt":null,"stimulus":"./assets/sounds/1920hz.mp3","response":null,"trial_type":"audio-keyboard-response","trial_index":479,"time_elapsed":639683,"internal_node_id":"0.0-479.0","unixTimestamp":1705700782112},{"rt":null,"stimulus":"","response":null,"trial_type":"html-keyboard-response","trial_index":480,"time_elapsed":639937,"internal_node_id":"0.0-480.0","unixTimestamp":1705700782366},{"rt":null,"stimulus":"+","response":null,"trial_type":"html-keyboard-response","trial_index":481,"time_elapsed":640440,"internal_node_id":"0.0-481.0","unixTimestamp":1705700782869},{"rt":null,"stimulus":"./assets/sounds/1024hz.mp3","response":null,"trial_type":"audio-keyboard-response","trial_index":482,"time_elapsed":640945,"internal_node_id":"0.0-482.0","unixTimestamp":1705700783374},{"rt":null,"stimulus":"","response":null,"trial_type":"html-keyboard-response","trial_index":483,"time_elapsed":641196,"internal_node_id":"0.0-483.0","unixTimestamp":1705700783625},{"rt":null,"stimulus":"+","response":null,"trial_type":"html-keyboard-response","trial_index":484,"time_elapsed":641698,"internal_node_id":"0.0-484.0","unixTimestamp":1705700784127},{"rt":null,"stimulus":"./assets/sounds/1024hz.mp3","response":null,"trial_type":"audio-keyboard-response","trial_index":485,"time_elapsed":642198,"internal_node_id":"0.0-485.0","unixTimestamp":1705700784627},{"rt":null,"stimulus":"","response":null,"trial_type":"html-keyboard-response","trial_index":486,"time_elapsed":642451,"internal_node_id":"0.0-486.0","unixTimestamp":1705700784880},{"rt":null,"stimulus":"+","response":null,"trial_type":"html-keyboard-response","trial_index":487,"time_elapsed":642953,"internal_node_id":"0.0-487.0","unixTimestamp":1705700785382},{"rt":null,"stimulus":"./assets/sounds/1024hz.mp3","response":null,"trial_type":"audio-keyboard-response","trial_index":488,"time_elapsed":643452,"internal_node_id":"0.0-488.0","unixTimestamp":1705700785881},{"rt":null,"stimulus":"","response":null,"trial_type":"html-keyboard-response","trial_index":489,"time_elapsed":643703,"internal_node_id":"0.0-489.0","unixTimestamp":1705700786132},{"rt":null,"stimulus":"+","response":null,"trial_type":"html-keyboard-response","trial_index":490,"time_elapsed":644210,"internal_node_id":"0.0-490.0","unixTimestamp":1705700786639},{"rt":null,"stimulus":"./assets/sounds/1024hz.mp3","response":null,"trial_type":"audio-keyboard-response","trial_index":491,"time_elapsed":644707,"internal_node_id":"0.0-491.0","unixTimestamp":1705700787136},{"rt":null,"stimulus":"","response":null,"trial_type":"html-keyboard-response","trial_index":492,"time_elapsed":644958,"internal_node_id":"0.0-492.0","unixTimestamp":1705700787387},{"rt":null,"stimulus":"+","response":null,"trial_type":"html-keyboard-response","trial_index":493,"time_elapsed":645461,"internal_node_id":"0.0-493.0","unixTimestamp":1705700787890},{"rt":null,"stimulus":"./assets/sounds/1024hz.mp3","response":null,"trial_type":"audio-keyboard-response","trial_index":494,"time_elapsed":645959,"internal_node_id":"0.0-494.0","unixTimestamp":1705700788388},{"rt":null,"stimulus":"","response":null,"trial_type":"html-keyboard-response","trial_index":495,"time_elapsed":646210,"internal_node_id":"0.0-495.0","unixTimestamp":1705700788639},{"rt":null,"stimulus":"+","response":null,"trial_type":"html-keyboard-response","trial_index":496,"time_elapsed":646717,"internal_node_id":"0.0-496.0","unixTimestamp":1705700789146},{"rt":null,"stimulus":"./assets/sounds/1024hz.mp3","response":null,"trial_type":"audio-keyboard-response","trial_index":497,"time_elapsed":647222,"internal_node_id":"0.0-497.0","unixTimestamp":1705700789651},{"rt":null,"stimulus":"","response":null,"trial_type":"html-keyboard-response","trial_index":498,"time_elapsed":647477,"internal_node_id":"0.0-498.0","unixTimestamp":1705700789906},{"rt":null,"stimulus":"+","response":null,"trial_type":"html-keyboard-response","trial_index":499,"time_elapsed":647982,"internal_node_id":"0.0-499.0","unixTimestamp":1705700790411},{"rt":null,"stimulus":"./assets/sounds/1920hz.mp3","response":null,"trial_type":"audio-keyboard-response","trial_index":500,"time_elapsed":648480,"internal_node_id":"0.0-500.0","unixTimestamp":1705700790909},{"rt":null,"stimulus":"","response":null,"trial_type":"html-keyboard-response","trial_index":501,"time_elapsed":648734,"internal_node_id":"0.0-501.0","unixTimestamp":1705700791163},{"rt":null,"stimulus":"+","response":null,"trial_type":"html-keyboard-response","trial_index":502,"time_elapsed":649240,"internal_node_id":"0.0-502.0","unixTimestamp":1705700791669},{"rt":null,"stimulus":"./assets/sounds/1024hz.mp3","response":null,"trial_type":"audio-keyboard-response","trial_index":503,"time_elapsed":649738,"internal_node_id":"0.0-503.0","unixTimestamp":1705700792167},{"rt":null,"stimulus":"","response":null,"trial_type":"html-keyboard-response","trial_index":504,"time_elapsed":649990,"internal_node_id":"0.0-504.0","unixTimestamp":1705700792419},{"rt":null,"stimulus":"+","response":null,"trial_type":"html-keyboard-response","trial_index":505,"time_elapsed":650495,"internal_node_id":"0.0-505.0","unixTimestamp":1705700792924},{"rt":null,"stimulus":"./assets/sounds/1024hz.mp3","response":null,"trial_type":"audio-keyboard-response","trial_index":506,"time_elapsed":650995,"internal_node_id":"0.0-506.0","unixTimestamp":1705700793424},{"rt":null,"stimulus":"","response":null,"trial_type":"html-keyboard-response","trial_index":507,"time_elapsed":651246,"internal_node_id":"0.0-507.0","unixTimestamp":1705700793675},{"rt":null,"stimulus":"+","response":null,"trial_type":"html-keyboard-response","trial_index":508,"time_elapsed":651748,"internal_node_id":"0.0-508.0","unixTimestamp":1705700794177},{"rt":null,"stimulus":"./assets/sounds/1024hz.mp3","response":null,"trial_type":"audio-keyboard-response","trial_index":509,"time_elapsed":652248,"internal_node_id":"0.0-509.0","unixTimestamp":1705700794677},{"rt":null,"stimulus":"","response":null,"trial_type":"html-keyboard-response","trial_index":510,"time_elapsed":652501,"internal_node_id":"0.0-510.0","unixTimestamp":1705700794930},{"rt":null,"stimulus":"+","response":null,"trial_type":"html-keyboard-response","trial_index":511,"time_elapsed":653004,"internal_node_id":"0.0-511.0","unixTimestamp":1705700795433},{"rt":null,"stimulus":"./assets/sounds/1024hz.mp3","response":null,"trial_type":"audio-keyboard-response","trial_index":512,"time_elapsed":653505,"internal_node_id":"0.0-512.0","unixTimestamp":1705700795934},{"rt":null,"stimulus":"","response":null,"trial_type":"html-keyboard-response","trial_index":513,"time_elapsed":653757,"internal_node_id":"0.0-513.0","unixTimestamp":1705700796186},{"rt":null,"stimulus":"+","response":null,"trial_type":"html-keyboard-response","trial_index":514,"time_elapsed":654259,"internal_node_id":"0.0-514.0","unixTimestamp":1705700796688},{"rt":null,"stimulus":"./assets/sounds/1024hz.mp3","response":null,"trial_type":"audio-keyboard-response","trial_index":515,"time_elapsed":654757,"internal_node_id":"0.0-515.0","unixTimestamp":1705700797186},{"rt":null,"stimulus":"","response":null,"trial_type":"html-keyboard-response","trial_index":516,"time_elapsed":655011,"internal_node_id":"0.0-516.0","unixTimestamp":1705700797440},{"rt":null,"stimulus":"+","response":null,"trial_type":"html-keyboard-response","trial_index":517,"time_elapsed":655513,"internal_node_id":"0.0-517.0","unixTimestamp":1705700797942},{"rt":null,"stimulus":"./assets/sounds/1024hz.mp3","response":null,"trial_type":"audio-keyboard-response","trial_index":518,"time_elapsed":656015,"internal_node_id":"0.0-518.0","unixTimestamp":1705700798444},{"rt":null,"stimulus":"","response":null,"trial_type":"html-keyboard-response","trial_index":519,"time_elapsed":656267,"internal_node_id":"0.0-519.0","unixTimestamp":1705700798696},{"rt":null,"stimulus":"+","response":null,"trial_type":"html-keyboard-response","trial_index":520,"time_elapsed":656770,"internal_node_id":"0.0-520.0","unixTimestamp":1705700799199},{"rt":null,"stimulus":"./assets/sounds/1024hz.mp3","response":null,"trial_type":"audio-keyboard-response","trial_index":521,"time_elapsed":657267,"internal_node_id":"0.0-521.0","unixTimestamp":1705700799696},{"rt":null,"stimulus":"","response":null,"trial_type":"html-keyboard-response","trial_index":522,"time_elapsed":657519,"internal_node_id":"0.0-522.0","unixTimestamp":1705700799948},{"rt":null,"stimulus":"+","response":null,"trial_type":"html-keyboard-response","trial_index":523,"time_elapsed":658022,"internal_node_id":"0.0-523.0","unixTimestamp":1705700800451},{"rt":null,"stimulus":"./assets/sounds/1024hz.mp3","response":null,"trial_type":"audio-keyboard-response","trial_index":524,"time_elapsed":658521,"internal_node_id":"0.0-524.0","unixTimestamp":1705700800950},{"rt":null,"stimulus":"","response":null,"trial_type":"html-keyboard-response","trial_index":525,"time_elapsed