{"trials":[{"view_history":[{"page_index":0,"viewing_time":83641},{"page_index":1,"viewing_time":1282},{"page_index":2,"viewing_time":1333},{"page_index":3,"viewing_time":3763},{"page_index":4,"viewing_time":1413},{"page_index":5,"viewing_time":121810},{"page_index":4,"viewing_time":32771},{"page_index":5,"viewing_time":6439}],"rt":252451,"trial_type":"instructions","trial_index":0,"time_elapsed":252451,"internal_node_id":"0.0-0.0"},{"rt":null,"stimulus":"","response":null,"trial_type":"html-keyboard-response","trial_index":1,"time_elapsed":252456,"internal_node_id":"0.0-1.0","unixTimestamp":1705701096480},{"rt":null,"stimulus":"./assets/sounds/1024hz.mp3","response":null,"trial_type":"audio-keyboard-response","trial_index":2,"time_elapsed":253280,"internal_node_id":"0.0-2.0","unixTimestamp":1705701097304},{"rt":null,"stimulus":"","response":null,"trial_type":"html-keyboard-response","trial_index":3,"time_elapsed":253543,"internal_node_id":"0.0-3.0","unixTimestamp":1705701097567},{"rt":null,"stimulus":"+","response":null,"trial_type":"html-keyboard-response","trial_index":4,"time_elapsed":254045,"internal_node_id":"0.0-4.0","unixTimestamp":1705701098069},{"rt":null,"stimulus":"./assets/sounds/1024hz.mp3","response":null,"trial_type":"audio-keyboard-response","trial_index":5,"time_elapsed":254549,"internal_node_id":"0.0-5.0","unixTimestamp":1705701098573},{"rt":null,"stimulus":"","response":null,"trial_type":"html-keyboard-response","trial_index":6,"time_elapsed":254805,"internal_node_id":"0.0-6.0","unixTimestamp":1705701098829},{"rt":null,"stimulus":"+","response":null,"trial_type":"html-keyboard-response","trial_index":7,"time_elapsed":255309,"internal_node_id":"0.0-7.0","unixTimestamp":1705701099333},{"rt":null,"stimulus":"./assets/sounds/1024hz.mp3","response":null,"trial_type":"audio-keyboard-response","trial_index":8,"time_elapsed":255818,"internal_node_id":"0.0-8.0","unixTimestamp":1705701099842},{"rt":null,"stimulus":"","response":null,"trial_type":"html-keyboard-response","trial_index":9,"time_elapsed":256072,"internal_node_id":"0.0-9.0","unixTimestamp":1705701100096},{"rt":null,"stimulus":"+","response":null,"trial_type":"html-keyboard-response","trial_index":10,"time_elapsed":256574,"internal_node_id":"0.0-10.0","unixTimestamp":1705701100598},{"rt":null,"stimulus":"./assets/sounds/1024hz.mp3","response":null,"trial_type":"audio-keyboard-response","trial_index":11,"time_elapsed":257079,"internal_node_id":"0.0-11.0","unixTimestamp":1705701101103},{"rt":null,"stimulus":"","response":null,"trial_type":"html-keyboard-response","trial_index":12,"time_elapsed":257332,"internal_node_id":"0.0-12.0","unixTimestamp":1705701101356},{"rt":null,"stimulus":"+","response":null,"trial_type":"html-keyboard-response","trial_index":13,"time_elapsed":257837,"internal_node_id":"0.0-13.0","unixTimestamp":1705701101861},{"rt":null,"stimulus":"./assets/sounds/1024hz.mp3","response":null,"trial_type":"audio-keyboard-response","trial_index":14,"time_elapsed":258347,"internal_node_id":"0.0-14.0","unixTimestamp":1705701102371},{"rt":null,"stimulus":"","response":null,"trial_type":"html-keyboard-response","trial_index":15,"time_elapsed":258608,"internal_node_id":"0.0-15.0","unixTimestamp":1705701102632},{"rt":null,"stimulus":"+","response":null,"trial_type":"html-keyboard-response","trial_index":16,"time_elapsed":259110,"internal_node_id":"0.0-16.0","unixTimestamp":1705701103134},{"rt":null,"stimulus":"./assets/sounds/1920hz.mp3","response":null,"trial_type":"audio-keyboard-response","trial_index":17,"time_elapsed":259835,"internal_node_id":"0.0-17.0","unixTimestamp":1705701103859},{"rt":null,"stimulus":"","response":null,"trial_type":"html-keyboard-response","trial_index":18,"time_elapsed":260089,"internal_node_id":"0.0-18.0","unixTimestamp":1705701104113},{"rt":null,"stimulus":"+","response":null,"trial_type":"html-keyboard-response","trial_index":19,"time_elapsed":260593,"internal_node_id":"0.0-19.0","unixTimestamp":1705701104617},{"rt":null,"stimulus":"./assets/sounds/1024hz.mp3","response":null,"trial_type":"audio-keyboard-response","trial_index":20,"time_elapsed":261098,"internal_node_id":"0.0-20.0","unixTimestamp":1705701105122},{"rt":null,"stimulus":"","response":null,"trial_type":"html-keyboard-response","trial_index":21,"time_elapsed":261354,"internal_node_id":"0.0-21.0","unixTimestamp":1705701105378},{"rt":null,"stimulus":"+","response":null,"trial_type":"html-keyboard-response","trial_index":22,"time_elapsed":261857,"internal_node_id":"0.0-22.0","unixTimestamp":1705701105881},{"rt":null,"stimulus":"./assets/sounds/1024hz.mp3","response":null,"trial_type":"audio-keyboard-response","trial_index":23,"time_elapsed":262361,"internal_node_id":"0.0-23.0","unixTimestamp":1705701106385},{"rt":null,"stimulus":"","response":null,"trial_type":"html-keyboard-response","trial_index":24,"time_elapsed":262614,"internal_node_id":"0.0-24.0","unixTimestamp":1705701106638},{"rt":null,"stimulus":"+","response":null,"trial_type":"html-keyboard-response","trial_index":25,"time_elapsed":263117,"internal_node_id":"0.0-25.0","unixTimestamp":1705701107141},{"rt":null,"stimulus":"./assets/sounds/1024hz.mp3","response":null,"trial_type":"audio-keyboard-response","trial_index":26,"time_elapsed":263623,"internal_node_id":"0.0-26.0","unixTimestamp":1705701107647},{"rt":null,"stimulus":"","response":null,"trial_type":"html-keyboard-response","trial_index":27,"time_elapsed":263879,"internal_node_id":"0.0-27.0","unixTimestamp":1705701107903},{"rt":null,"stimulus":"+","response":null,"trial_type":"html-keyboard-response","trial_index":28,"time_elapsed":264382,"internal_node_id":"0.0-28.0","unixTimestamp":1705701108406},{"rt":null,"stimulus":"./assets/sounds/1024hz.mp3","response":null,"trial_type":"audio-keyboard-response","trial_index":29,"time_elapsed":264886,"internal_node_id":"0.0-29.0","unixTimestamp":1705701108910},{"rt":null,"stimulus":"","response":null,"trial_type":"html-keyboard-response","trial_index":30,"time_elapsed":265142,"internal_node_id":"0.0-30.0","unixTimestamp":1705701109166},{"rt":null,"stimulus":"+","response":null,"trial_type":"html-keyboard-response","trial_index":31,"time_elapsed":265648,"internal_node_id":"0.0-31.0","unixTimestamp":1705701109672},{"rt":null,"stimulus":"./assets/sounds/1024hz.mp3","response":null,"trial_type":"audio-keyboard-response","trial_index":32,"time_elapsed":266154,"internal_node_id":"0.0-32.0","unixTimestamp":1705701110178},{"rt":null,"stimulus":"","response":null,"trial_type":"html-keyboard-response","trial_index":33,"time_elapsed":266409,"internal_node_id":"0.0-33.0","unixTimestamp":1705701110433},{"rt":null,"stimulus":"+","response":null,"trial_type":"html-keyboard-response","trial_index":34,"time_elapsed":266912,"internal_node_id":"0.0-34.0","unixTimestamp":1705701110936},{"rt":null,"stimulus":"./assets/sounds/1024hz.mp3","response":null,"trial_type":"audio-keyboard-response","trial_index":35,"time_elapsed":267411,"internal_node_id":"0.0-35.0","unixTimestamp":1705701111435},{"rt":null,"stimulus":"","response":null,"trial_type":"html-keyboard-response","trial_index":36,"time_elapsed":267664,"internal_node_id":"0.0-36.0","unixTimestamp":1705701111688},{"rt":null,"stimulus":"+","response":null,"trial_type":"html-keyboard-response","trial_index":37,"time_elapsed":268168,"internal_node_id":"0.0-37.0","unixTimestamp":1705701112192},{"rt":null,"stimulus":"./assets/sounds/1024hz.mp3","response":null,"trial_type":"audio-keyboard-response","trial_index":38,"time_elapsed":268679,"internal_node_id":"0.0-38.0","unixTimestamp":1705701112703},{"rt":null,"stimulus":"","response":null,"trial_type":"html-keyboard-response","trial_index":39,"time_elapsed":268933,"internal_node_id":"0.0-39.0","unixTimestamp":1705701112957},{"rt":null,"stimulus":"+","response":null,"trial_type":"html-keyboard-response","trial_index":40,"time_elapsed":269436,"internal_node_id":"0.0-40.0","unixTimestamp":1705701113460},{"rt":null,"stimulus":"./assets/sounds/1024hz.mp3","response":null,"trial_type":"audio-keyboard-response","trial_index":41,"time_elapsed":269936,"internal_node_id":"0.0-41.0","unixTimestamp":1705701113960},{"rt":null,"stimulus":"","response":null,"trial_type":"html-keyboard-response","trial_index":42,"time_elapsed":270187,"internal_node_id":"0.0-42.0","unixTimestamp":1705701114211},{"rt":null,"stimulus":"+","response":null,"trial_type":"html-keyboard-response","trial_index":43,"time_elapsed":270687,"internal_node_id":"0.0-43.0","unixTimestamp":1705701114711},{"rt":null,"stimulus":"./assets/sounds/1920hz.mp3","response":null,"trial_type":"audio-keyboard-response","trial_index":44,"time_elapsed":271193,"internal_node_id":"0.0-44.0","unixTimestamp":1705701115217},{"rt":null,"stimulus":"","response":null,"trial_type":"html-keyboard-response","trial_index":45,"time_elapsed":271449,"internal_node_id":"0.0-45.0","unixTimestamp":1705701115473},{"rt":null,"stimulus":"+","response":null,"trial_type":"html-keyboard-response","trial_index":46,"time_elapsed":271965,"internal_node_id":"0.0-46.0","unixTimestamp":1705701115989},{"rt":null,"stimulus":"./assets/sounds/1024hz.mp3","response":null,"trial_type":"audio-keyboard-response","trial_index":47,"time_elapsed":272467,"internal_node_id":"0.0-47.0","unixTimestamp":1705701116491},{"rt":null,"stimulus":"","response":null,"trial_type":"html-keyboard-response","trial_index":48,"time_elapsed":272720,"internal_node_id":"0.0-48.0","unixTimestamp":1705701116744},{"rt":null,"stimulus":"+","response":null,"trial_type":"html-keyboard-response","trial_index":49,"time_elapsed":273226,"internal_node_id":"0.0-49.0","unixTimestamp":1705701117250},{"rt":null,"stimulus":"./assets/sounds/1024hz.mp3","response":null,"trial_type":"audio-keyboard-response","trial_index":50,"time_elapsed":273736,"internal_node_id":"0.0-50.0","unixTimestamp":1705701117760},{"rt":null,"stimulus":"","response":null,"trial_type":"html-keyboard-response","trial_index":51,"time_elapsed":273987,"internal_node_id":"0.0-51.0","unixTimestamp":1705701118011},{"rt":null,"stimulus":"+","response":null,"trial_type":"html-keyboard-response","trial_index":52,"time_elapsed":274490,"internal_node_id":"0.0-52.0","unixTimestamp":1705701118514},{"rt":null,"stimulus":"./assets/sounds/1024hz.mp3","response":null,"trial_type":"audio-keyboard-response","trial_index":53,"time_elapsed":274994,"internal_node_id":"0.0-53.0","unixTimestamp":1705701119018},{"rt":null,"stimulus":"","response":null,"trial_type":"html-keyboard-response","trial_index":54,"time_elapsed":275250,"internal_node_id":"0.0-54.0","unixTimestamp":1705701119274},{"rt":null,"stimulus":"+","response":null,"trial_type":"html-keyboard-response","trial_index":55,"time_elapsed":275753,"internal_node_id":"0.0-55.0","unixTimestamp":1705701119777},{"rt":null,"stimulus":"./assets/sounds/1024hz.mp3","response":null,"trial_type":"audio-keyboard-response","trial_index":56,"time_elapsed":276260,"internal_node_id":"0.0-56.0","unixTimestamp":1705701120284},{"rt":null,"stimulus":"","response":null,"trial_type":"html-keyboard-response","trial_index":57,"time_elapsed":276512,"internal_node_id":"0.0-57.0","unixTimestamp":1705701120536},{"rt":null,"stimulus":"+","response":null,"trial_type":"html-keyboard-response","trial_index":58,"time_elapsed":277013,"internal_node_id":"0.0-58.0","unixTimestamp":1705701121037},{"rt":null,"stimulus":"./assets/sounds/1024hz.mp3","response":null,"trial_type":"audio-keyboard-response","trial_index":59,"time_elapsed":277517,"internal_node_id":"0.0-59.0","unixTimestamp":1705701121541},{"rt":null,"stimulus":"","response":null,"trial_type":"html-keyboard-response","trial_index":60,"time_elapsed":277770,"internal_node_id":"0.0-60.0","unixTimestamp":1705701121794},{"rt":null,"stimulus":"+","response":null,"trial_type":"html-keyboard-response","trial_index":61,"time_elapsed":278274,"internal_node_id":"0.0-61.0","unixTimestamp":1705701122298},{"rt":null,"stimulus":"./assets/sounds/1024hz.mp3","response":null,"trial_type":"audio-keyboard-response","trial_index":62,"time_elapsed":278780,"internal_node_id":"0.0-62.0","unixTimestamp":1705701122804},{"rt":null,"stimulus":"","response":null,"trial_type":"html-keyboard-response","trial_index":63,"time_elapsed":279030,"internal_node_id":"0.0-63.0","unixTimestamp":1705701123054},{"rt":null,"stimulus":"+","response":null,"trial_type":"html-keyboard-response","trial_index":64,"time_elapsed":279532,"internal_node_id":"0.0-64.0","unixTimestamp":1705701123556},{"rt":null,"stimulus":"./assets/sounds/1920hz.mp3","response":null,"trial_type":"audio-keyboard-response","trial_index":65,"time_elapsed":280031,"internal_node_id":"0.0-65.0","unixTimestamp":1705701124055},{"rt":null,"stimulus":"","response":null,"trial_type":"html-keyboard-response","trial_index":66,"time_elapsed":280283,"internal_node_id":"0.0-66.0","unixTimestamp":1705701124307},{"rt":null,"stimulus":"+","response":null,"trial_type":"html-keyboard-response","trial_index":67,"time_elapsed":280783,"internal_node_id":"0.0-67.0","unixTimestamp":1705701124807},{"rt":null,"stimulus":"./assets/sounds/1024hz.mp3","response":null,"trial_type":"audio-keyboard-response","trial_index":68,"time_elapsed":281294,"internal_node_id":"0.0-68.0","unixTimestamp":1705701125318},{"rt":null,"stimulus":"","response":null,"trial_type":"html-keyboard-response","trial_index":69,"time_elapsed":281548,"internal_node_id":"0.0-69.0","unixTimestamp":1705701125572},{"rt":null,"stimulus":"+","response":null,"trial_type":"html-keyboard-response","trial_index":70,"time_elapsed":282049,"internal_node_id":"0.0-70.0","unixTimestamp":1705701126073},{"rt":null,"stimulus":"./assets/sounds/1024hz.mp3","response":null,"trial_type":"audio-keyboard-response","trial_index":71,"time_elapsed":282550,"internal_node_id":"0.0-71.0","unixTimestamp":1705701126574},{"rt":null,"stimulus":"","response":null,"trial_type":"html-keyboard-response","trial_index":72,"time_elapsed":282804,"internal_node_id":"0.0-72.0","unixTimestamp":1705701126828},{"rt":null,"stimulus":"+","response":null,"trial_type":"html-keyboard-response","trial_index":73,"time_elapsed":283309,"internal_node_id":"0.0-73.0","unixTimestamp":1705701127333},{"rt":null,"stimulus":"./assets/sounds/1024hz.mp3","response":null,"trial_type":"audio-keyboard-response","trial_index":74,"time_elapsed":283819,"internal_node_id":"0.0-74.0","unixTimestamp":1705701127843},{"rt":null,"stimulus":"","response":null,"trial_type":"html-keyboard-response","trial_index":75,"time_elapsed":284076,"internal_node_id":"0.0-75.0","unixTimestamp":1705701128100},{"rt":null,"stimulus":"+","response":null,"trial_type":"html-keyboard-response","trial_index":76,"time_elapsed":284576,"internal_node_id":"0.0-76.0","unixTimestamp":1705701128600},{"rt":null,"stimulus":"./assets/sounds/1024hz.mp3","response":null,"trial_type":"audio-keyboard-response","trial_index":77,"time_elapsed":285076,"internal_node_id":"0.0-77.0","unixTimestamp":1705701129100},{"rt":null,"stimulus":"","response":null,"trial_type":"html-keyboard-response","trial_index":78,"time_elapsed":285329,"internal_node_id":"0.0-78.0","unixTimestamp":1705701129353},{"rt":null,"stimulus":"+","response":null,"trial_type":"html-keyboard-response","trial_index":79,"time_elapsed":285832,"internal_node_id":"0.0-79.0","unixTimestamp":1705701129856},{"rt":null,"stimulus":"./assets/sounds/1024hz.mp3","response":null,"trial_type":"audio-keyboard-response","trial_index":80,"time_elapsed":286339,"internal_node_id":"0.0-80.0","unixTimestamp":1705701130363},{"rt":null,"stimulus":"","response":null,"trial_type":"html-keyboard-response","trial_index":81,"time_elapsed":286590,"internal_node_id":"0.0-81.0","unixTimestamp":1705701130614},{"rt":null,"stimulus":"+","response":null,"trial_type":"html-keyboard-response","trial_index":82,"time_elapsed":287093,"internal_node_id":"0.0-82.0","unixTimestamp":1705701131117},{"rt":null,"stimulus":"./assets/sounds/1024hz.mp3","response":null,"trial_type":"audio-keyboard-response","trial_index":83,"time_elapsed":287595,"internal_node_id":"0.0-83.0","unixTimestamp":1705701131619},{"rt":null,"stimulus":"","response":null,"trial_type":"html-keyboard-response","trial_index":84,"time_elapsed":287848,"internal_node_id":"0.0-84.0","unixTimestamp":1705701131872},{"rt":null,"stimulus":"+","response":null,"trial_type":"html-keyboard-response","trial_index":85,"time_elapsed":288350,"internal_node_id":"0.0-85.0","unixTimestamp":1705701132374},{"rt":null,"stimulus":"./assets/sounds/1024hz.mp3","response":null,"trial_type":"audio-keyboard-response","trial_index":86,"time_elapsed":288857,"internal_node_id":"0.0-86.0","unixTimestamp":1705701132881},{"rt":null,"stimulus":"","response":null,"trial_type":"html-keyboard-response","trial_index":87,"time_elapsed":289110,"internal_node_id":"0.0-87.0","unixTimestamp":1705701133134},{"rt":null,"stimulus":"+","response":null,"trial_type":"html-keyboard-response","trial_index":88,"time_elapsed":289612,"internal_node_id":"0.0-88.0","unixTimestamp":1705701133636},{"rt":null,"stimulus":"./assets/sounds/1024hz.mp3","response":null,"trial_type":"audio-keyboard-response","trial_index":89,"time_elapsed":290114,"internal_node_id":"0.0-89.0","unixTimestamp":1705701134138},{"rt":null,"stimulus":"","response":null,"trial_type":"html-keyboard-response","trial_index":90,"time_elapsed":290371,"internal_node_id":"0.0-90.0","unixTimestamp":1705701134395},{"rt":null,"stimulus":"+","response":null,"trial_type":"html-keyboard-response","trial_index":91,"time_elapsed":290878,"internal_node_id":"0.0-91.0","unixTimestamp":1705701134902},{"rt":null,"stimulus":"./assets/sounds/1024hz.mp3","response":null,"trial_type":"audio-keyboard-response","trial_index":92,"time_elapsed":291388,"internal_node_id":"0.0-92.0","unixTimestamp":1705701135412},{"rt":null,"stimulus":"","response":null,"trial_type":"html-keyboard-response","trial_index":93,"time_elapsed":291639,"internal_node_id":"0.0-93.0","unixTimestamp":1705701135663},{"rt":null,"stimulus":"+","response":null,"trial_type":"html-keyboard-response","trial_index":94,"time_elapsed":292142,"internal_node_id":"0.0-94.0","unixTimestamp":1705701136166},{"rt":null,"stimulus":"./assets/sounds/1024hz.mp3","response":null,"trial_type":"audio-keyboard-response","trial_index":95,"time_elapsed":292651,"internal_node_id":"0.0-95.0","unixTimestamp":1705701136675},{"rt":null,"stimulus":"","response":null,"trial_type":"html-keyboard-response","trial_index":96,"time_elapsed":292907,"internal_node_id":"0.0-96.0","unixTimestamp":1705701136931},{"rt":null,"stimulus":"+","response":null,"trial_type":"html-keyboard-response","trial_index":97,"time_elapsed":293409,"internal_node_id":"0.0-97.0","unixTimestamp":1705701137433},{"rt":null,"stimulus":"./assets/sounds/1920hz.mp3","response":null,"trial_type":"audio-keyboard-response","trial_index":98,"time_elapsed":293920,"internal_node_id":"0.0-98.0","unixTimestamp":1705701137944},{"rt":null,"stimulus":"","response":null,"trial_type":"html-keyboard-response","trial_index":99,"time_elapsed":294171,"internal_node_id":"0.0-99.0","unixTimestamp":1705701138195},{"rt":null,"stimulus":"+","response":null,"trial_type":"html-keyboard-response","trial_index":100,"time_elapsed":294675,"internal_node_id":"0.0-100.0","unixTimestamp":1705701138699},{"rt":null,"stimulus":"./assets/sounds/1024hz.mp3","response":null,"trial_type":"audio-keyboard-response","trial_index":101,"time_elapsed":295176,"internal_node_id":"0.0-101.0","unixTimestamp":1705701139200},{"rt":null,"stimulus":"","response":null,"trial_type":"html-keyboard-response","trial_index":102,"time_elapsed":295437,"internal_node_id":"0.0-102.0","unixTimestamp":1705701139461},{"rt":null,"stimulus":"+","response":null,"trial_type":"html-keyboard-response","trial_index":103,"time_elapsed":295940,"internal_node_id":"0.0-103.0","unixTimestamp":1705701139964},{"rt":null,"stimulus":"./assets/sounds/1024hz.mp3","response":null,"trial_type":"audio-keyboard-response","trial_index":104,"time_elapsed":296451,"internal_node_id":"0.0-104.0","unixTimestamp":1705701140475},{"rt":null,"stimulus":"","response":null,"trial_type":"html-keyboard-response","trial_index":105,"time_elapsed":296702,"internal_node_id":"0.0-105.0","unixTimestamp":1705701140726},{"rt":null,"stimulus":"+","response":null,"trial_type":"html-keyboard-response","trial_index":106,"time_elapsed":297203,"internal_node_id":"0.0-106.0","unixTimestamp":1705701141227},{"rt":null,"stimulus":"./assets/sounds/1024hz.mp3","response":null,"trial_type":"audio-keyboard-response","trial_index":107,"time_elapsed":297707,"internal_node_id":"0.0-107.0","unixTimestamp":1705701141731},{"rt":null,"stimulus":"","response":null,"trial_type":"html-keyboard-response","trial_index":108,"time_elapsed":297961,"internal_node_id":"0.0-108.0","unixTimestamp":1705701141985},{"rt":null,"stimulus":"+","response":null,"trial_type":"html-keyboard-response","trial_index":109,"time_elapsed":298468,"internal_node_id":"0.0-109.0","unixTimestamp":1705701142492},{"rt":null,"stimulus":"./assets/sounds/1024hz.mp3","response":null,"trial_type":"audio-keyboard-response","trial_index":110,"time_elapsed":298975,"internal_node_id":"0.0-110.0","unixTimestamp":1705701142999},{"rt":null,"stimulus":"","response":null,"trial_type":"html-keyboard-response","trial_index":111,"time_elapsed":299227,"internal_node_id":"0.0-111.0","unixTimestamp":1705701143251},{"rt":null,"stimulus":"+","response":null,"trial_type":"html-keyboard-response","trial_index":112,"time_elapsed":299733,"internal_node_id":"0.0-112.0","unixTimestamp":1705701143757},{"rt":null,"stimulus":"./assets/sounds/1024hz.mp3","response":null,"trial_type":"audio-keyboard-response","trial_index":113,"time_elapsed":300233,"internal_node_id":"0.0-113.0","unixTimestamp":1705701144257},{"rt":null,"stimulus":"","response":null,"trial_type":"html-keyboard-response","trial_index":114,"time_elapsed":300489,"internal_node_id":"0.0-114.0","unixTimestamp":1705701144513},{"rt":null,"stimulus":"+","response":null,"trial_type":"html-keyboard-response","trial_index":115,"time_elapsed":300992,"internal_node_id":"0.0-115.0","unixTimestamp":1705701145016},{"rt":null,"stimulus":"./assets/sounds/1024hz.mp3","response":null,"trial_type":"audio-keyboard-response","trial_index":116,"time_elapsed":301501,"internal_node_id":"0.0-116.0","unixTimestamp":1705701145525},{"rt":null,"stimulus":"","response":null,"trial_type":"html-keyboard-response","trial_index":117,"time_elapsed":301752,"internal_node_id":"0.0-117.0","unixTimestamp":1705701145776},{"rt":null,"stimulus":"+","response":null,"trial_type":"html-keyboard-response","trial_index":118,"time_elapsed":302254,"internal_node_id":"0.0-118.0","unixTimestamp":1705701146278},{"rt":null,"stimulus":"./assets/sounds/1024hz.mp3","response":null,"trial_type":"audio-keyboard-response","trial_index":119,"time_elapsed":302757,"internal_node_id":"0.0-119.0","unixTimestamp":1705701146781},{"rt":null,"stimulus":"","response":null,"trial_type":"html-keyboard-response","trial_index":120,"time_elapsed":303010,"internal_node_id":"0.0-120.0","unixTimestamp":1705701147034},{"rt":null,"stimulus":"+","response":null,"trial_type":"html-keyboard-response","trial_index":121,"time_elapsed":303512,"internal_node_id":"0.0-121.0","unixTimestamp":1705701147536},{"rt":null,"stimulus":"./assets/sounds/1024hz.mp3","response":null,"trial_type":"audio-keyboard-response","trial_index":122,"time_elapsed":304020,"internal_node_id":"0.0-122.0","unixTimestamp":1705701148044},{"rt":null,"stimulus":"","response":null,"trial_type":"html-keyboard-response","trial_index":123,"time_elapsed":304272,"internal_node_id":"0.0-123.0","unixTimestamp":1705701148296},{"rt":null,"stimulus":"+","response":null,"trial_type":"html-keyboard-response","trial_index":124,"time_elapsed":304776,"internal_node_id":"0.0-124.0","unixTimestamp":1705701148800},{"rt":null,"stimulus":"./assets/sounds/1920hz.mp3","response":null,"trial_type":"audio-keyboard-response","trial_index":125,"time_elapsed":305277,"internal_node_id":"0.0-125.0","unixTimestamp":1705701149301},{"rt":null,"stimulus":"","response":null,"trial_type":"html-keyboard-response","trial_index":126,"time_elapsed":305531,"internal_node_id":"0.0-126.0","unixTimestamp":1705701149555},{"rt":null,"stimulus":"+","response":null,"trial_type":"html-keyboard-response","trial_index":127,"time_elapsed":306033,"internal_node_id":"0.0-127.0","unixTimestamp":1705701150057},{"rt":null,"stimulus":"./assets/sounds/1024hz.mp3","response":null,"trial_type":"audio-keyboard-response","trial_index":128,"time_elapsed":306539,"internal_node_id":"0.0-128.0","unixTimestamp":1705701150563},{"rt":null,"stimulus":"","response":null,"trial_type":"html-keyboard-response","trial_index":129,"time_elapsed":306792,"internal_node_id":"0.0-129.0","unixTimestamp":1705701150816},{"rt":null,"stimulus":"+","response":null,"trial_type":"html-keyboard-response","trial_index":130,"time_elapsed":307296,"internal_node_id":"0.0-130.0","unixTimestamp":1705701151320},{"rt":null,"stimulus":"./assets/sounds/1024hz.mp3","response":null,"trial_type":"audio-keyboard-response","trial_index":131,"time_elapsed":307798,"internal_node_id":"0.0-131.0","unixTimestamp":1705701151822},{"rt":null,"stimulus":"","response":null,"trial_type":"html-keyboard-response","trial_index":132,"time_elapsed":308051,"internal_node_id":"0.0-132.0","unixTimestamp":1705701152075},{"rt":null,"stimulus":"+","response":null,"trial_type":"html-keyboard-response","trial_index":133,"time_elapsed":308558,"internal_node_id":"0.0-133.0","unixTimestamp":1705701152582},{"rt":null,"stimulus":"./assets/sounds/1024hz.mp3","response":null,"trial_type":"audio-keyboard-response","trial_index":134,"time_elapsed":309065,"internal_node_id":"0.0-134.0","unixTimestamp":1705701153089},{"rt":null,"stimulus":"","response":null,"trial_type":"html-keyboard-response","trial_index":135,"time_elapsed":309318,"internal_node_id":"0.0-135.0","unixTimestamp":1705701153342},{"rt":null,"stimulus":"+","response":null,"trial_type":"html-keyboard-response","trial_index":136,"time_elapsed":309827,"internal_node_id":"0.0-136.0","unixTimestamp":1705701153851},{"rt":null,"stimulus":"./assets/sounds/1024hz.mp3","response":null,"trial_type":"audio-keyboard-response","trial_index":137,"time_elapsed":310328,"internal_node_id":"0.0-137.0","unixTimestamp":1705701154352},{"rt":null,"stimulus":"","response":null,"trial_type":"html-keyboard-response","trial_index":138,"time_elapsed":310581,"internal_node_id":"0.0-138.0","unixTimestamp":1705701154605},{"rt":null,"stimulus":"+","response":null,"trial_type":"html-keyboard-response","trial_index":139,"time_elapsed":311086,"internal_node_id":"0.0-139.0","unixTimestamp":1705701155110},{"rt":null,"stimulus":"./assets/sounds/1024hz.mp3","response":null,"trial_type":"audio-keyboard-response","trial_index":140,"time_elapsed":311595,"internal_node_id":"0.0-140.0","unixTimestamp":1705701155619},{"rt":null,"stimulus":"","response":null,"trial_type":"html-keyboard-response","trial_index":141,"time_elapsed":311847,"internal_node_id":"0.0-141.0","unixTimestamp":1705701155871},{"rt":null,"stimulus":"+","response":null,"trial_type":"html-keyboard-response","trial_index":142,"time_elapsed":312352,"internal_node_id":"0.0-142.0","unixTimestamp":1705701156376},{"rt":null,"stimulus":"./assets/sounds/1024hz.mp3","response":null,"trial_type":"audio-keyboard-response","trial_index":143,"time_elapsed":312852,"internal_node_id":"0.0-143.0","unixTimestamp":1705701156876},{"rt":null,"stimulus":"","response":null,"trial_type":"html-keyboard-response","trial_index":144,"time_elapsed":313108,"internal_node_id":"0.0-144.0","unixTimestamp":1705701157132},{"rt":null,"stimulus":"+","response":null,"trial_type":"html-keyboard-response","trial_index":145,"time_elapsed":313614,"internal_node_id":"0.0-145.0","unixTimestamp":1705701157638},{"rt":null,"stimulus":"./assets/sounds/1024hz.mp3","response":null,"trial_type":"audio-keyboard-response","trial_index":146,"time_elapsed":314124,"internal_node_id":"0.0-146.0","unixTimestamp":1705701158148},{"rt":null,"stimulus":"","response":null,"trial_type":"html-keyboard-response","trial_index":147,"time_elapsed":314380,"internal_node_id":"0.0-147.0","unixTimestamp":1705701158404},{"rt":null,"stimulus":"+","response":null,"trial_type":"html-keyboard-response","trial_index":148,"time_elapsed":314889,"internal_node_id":"0.0-148.0","unixTimestamp":1705701158913},{"rt":null,"stimulus":"./assets/sounds/1024hz.mp3","response":null,"trial_type":"audio-keyboard-response","trial_index":149,"time_elapsed":315390,"internal_node_id":"0.0-149.0","unixTimestamp":1705701159414},{"rt":null,"stimulus":"","response":null,"trial_type":"html-keyboard-response","trial_index":150,"time_elapsed":315646,"internal_node_id":"0.0-150.0","unixTimestamp":1705701159670},{"rt":null,"stimulus":"+","response":null,"trial_type":"html-keyboard-response","trial_index":151,"time_elapsed":316149,"internal_node_id":"0.0-151.0","unixTimestamp":1705701160173},{"rt":null,"stimulus":"./assets/sounds/1920hz.mp3","response":null,"trial_type":"audio-keyboard-response","trial_index":152,"time_elapsed":316657,"internal_node_id":"0.0-152.0","unixTimestamp":1705701160681},{"rt":null,"stimulus":"","response":null,"trial_type":"html-keyboard-response","trial_index":153,"time_elapsed":316914,"internal_node_id":"0.0-153.0","unixTimestamp":1705701160938},{"rt":null,"stimulus":"+","response":null,"trial_type":"html-keyboard-response","trial_index":154,"time_elapsed":317419,"internal_node_id":"0.0-154.0","unixTimestamp":1705701161443},{"rt":null,"stimulus":"./assets/sounds/1024hz.mp3","response":null,"trial_type":"audio-keyboard-response","trial_index":155,"time_elapsed":317926,"internal_node_id":"0.0-155.0","unixTimestamp":1705701161950},{"rt":null,"stimulus":"","response":null,"trial_type":"html-keyboard-response","trial_index":156,"time_elapsed":318178,"internal_node_id":"0.0-156.0","unixTimestamp":1705701162202},{"rt":null,"stimulus":"+","response":null,"trial_type":"html-keyboard-response","trial_index":157,"time_elapsed":318681,"internal_node_id":"0.0-157.0","unixTimestamp":1705701162705},{"rt":null,"stimulus":"./assets/sounds/1024hz.mp3","response":null,"trial_type":"audio-keyboard-response","trial_index":158,"time_elapsed":319188,"internal_node_id":"0.0-158.0","unixTimestamp":1705701163212},{"rt":null,"stimulus":"","response":null,"trial_type":"html-keyboard-response","trial_index":159,"time_elapsed":319440,"internal_node_id":"0.0-159.0","unixTimestamp":1705701163464},{"rt":null,"stimulus":"+","response":null,"trial_type":"html-keyboard-response","trial_index":160,"time_elapsed":319941,"internal_node_id":"0.0-160.0","unixTimestamp":1705701163965},{"rt":null,"stimulus":"./assets/sounds/1024hz.mp3","response":null,"trial_type":"audio-keyboard-response","trial_index":161,"time_elapsed":320440,"internal_node_id":"0.0-161.0","unixTimestamp":1705701164464},{"rt":null,"stimulus":"","response":null,"trial_type":"html-keyboard-response","trial_index":162,"time_elapsed":320692,"internal_node_id":"0.0-162.0","unixTimestamp":1705701164716},{"rt":null,"stimulus":"+","response":null,"trial_type":"html-keyboard-response","trial_index":163,"time_elapsed":321197,"internal_node_id":"0.0-163.0","unixTimestamp":1705701165221},{"rt":null,"stimulus":"./assets/sounds/1024hz.mp3","response":null,"trial_type":"audio-keyboard-response","trial_index":164,"time_elapsed":321708,"internal_node_id":"0.0-164.0","unixTimestamp":1705701165732},{"rt":null,"stimulus":"","response":null,"trial_type":"html-keyboard-response","trial_index":165,"time_elapsed":321958,"internal_node_id":"0.0-165.0","unixTimestamp":1705701165982},{"rt":null,"stimulus":"+","response":null,"trial_type":"html-keyboard-response","trial_index":166,"time_elapsed":322464,"internal_node_id":"0.0-166.0","unixTimestamp":1705701166488},{"rt":null,"stimulus":"./assets/sounds/1024hz.mp3","response":null,"trial_type":"audio-keyboard-response","trial_index":167,"time_elapsed":322971,"internal_node_id":"0.0-167.0","unixTimestamp":1705701166995},{"rt":null,"stimulus":"","response":null,"trial_type":"html-keyboard-response","trial_index":168,"time_elapsed":323226,"internal_node_id":"0.0-168.0","unixTimestamp":1705701167250},{"rt":null,"stimulus":"+","response":null,"trial_type":"html-keyboard-response","trial_index":169,"time_elapsed":323728,"internal_node_id":"0.0-169.0","unixTimestamp":1705701167752},{"rt":null,"stimulus":"./assets/sounds/1024hz.mp3","response":null,"trial_type":"audio-keyboard-response","trial_index":170,"time_elapsed":324233,"internal_node_id":"0.0-170.0","unixTimestamp":1705701168257},{"rt":null,"stimulus":"","response":null,"trial_type":"html-keyboard-response","trial_index":171,"time_elapsed":324485,"internal_node_id":"0.0-171.0","unixTimestamp":1705701168509},{"rt":null,"stimulus":"+","response":null,"trial_type":"html-keyboard-response","trial_index":172,"time_elapsed":324990,"internal_node_id":"0.0-172.0","unixTimestamp":1705701169014},{"rt":null,"stimulus":"./assets/sounds/1024hz.mp3","response":null,"trial_type":"audio-keyboard-response","trial_index":173,"time_elapsed":325490,"internal_node_id":"0.0-173.0","unixTimestamp":1705701169514},{"rt":null,"stimulus":"","response":null,"trial_type":"html-keyboard-response","trial_index":174,"time_elapsed":325745,"internal_node_id":"0.0-174.0","unixTimestamp":1705701169769},{"rt":null,"stimulus":"+","response":null,"trial_type":"html-keyboard-response","trial_index":175,"time_elapsed":326249,"internal_node_id":"0.0-175.0","unixTimestamp":1705701170273},{"rt":null,"stimulus":"./assets/sounds/1024hz.mp3","response":null,"trial_type":"audio-keyboard-response","trial_index":176,"time_elapsed":326758,"internal_node_id":"0.0-176.0","unixTimestamp":1705701170782},{"rt":null,"stimulus":"","response":null,"trial_type":"html-keyboard-response","trial_index":177,"time_elapsed":327010,"internal_node_id":"0.0-177.0","unixTimestamp":1705701171034},{"rt":null,"stimulus":"+","response":null,"trial_type":"html-keyboard-response","trial_index":178,"time_elapsed":327513,"internal_node_id":"0.0-178.0","unixTimestamp":1705701171537},{"rt":null,"stimulus":"./assets/sounds/1024hz.mp3","response":null,"trial_type":"audio-keyboard-response","trial_index":179,"time_elapsed":328022,"internal_node_id":"0.0-179.0","unixTimestamp":1705701172046},{"rt":null,"stimulus":"","response":null,"trial_type":"html-keyboard-response","trial_index":180,"time_elapsed":328274,"internal_node_id":"0.0-180.0","unixTimestamp":1705701172298},{"rt":null,"stimulus":"+","response":null,"trial_type":"html-keyboard-response","trial_index":181,"time_elapsed":328779,"internal_node_id":"0.0-181.0","unixTimestamp":1705701172803},{"rt":null,"stimulus":"./assets/sounds/1024hz.mp3","response":null,"trial_type":"audio-keyboard-response","trial_index":182,"time_elapsed":329291,"internal_node_id":"0.0-182.0","unixTimestamp":1705701173315},{"rt":null,"stimulus":"","response":null,"trial_type":"html-keyboard-response","trial_index":183,"time_elapsed":329542,"internal_node_id":"0.0-183.0","unixTimestamp":1705701173566},{"rt":null,"stimulus":"+","response":null,"trial_type":"html-keyboard-response","trial_index":184,"time_elapsed":330045,"internal_node_id":"0.0-184.0","unixTimestamp":1705701174069},{"rt":null,"stimulus":"./assets/sounds/1024hz.mp3","response":null,"trial_type":"audio-keyboard-response","trial_index":185,"time_elapsed":330548,"internal_node_id":"0.0-185.0","unixTimestamp":1705701174572},{"rt":null,"stimulus":"","response":null,"trial_type":"html-keyboard-response","trial_index":186,"time_elapsed":330799,"internal_node_id":"0.0-186.0","unixTimestamp":1705701174823},{"rt":null,"stimulus":"+","response":null,"trial_type":"html-keyboard-response","trial_index":187,"time_elapsed":331302,"internal_node_id":"0.0-187.0","unixTimestamp":1705701175326},{"rt":null,"stimulus":"./assets/sounds/1920hz.mp3","response":null,"trial_type":"audio-keyboard-response","trial_index":188,"time_elapsed":331809,"internal_node_id":"0.0-188.0","unixTimestamp":1705701175833},{"rt":null,"stimulus":"","response":null,"trial_type":"html-keyboard-response","trial_index":189,"time_elapsed":332061,"internal_node_id":"0.0-189.0","unixTimestamp":1705701176085},{"rt":null,"stimulus":"+","response":null,"trial_type":"html-keyboard-response","trial_index":190,"time_elapsed":332563,"internal_node_id":"0.0-190.0","unixTimestamp":1705701176587},{"rt":null,"stimulus":"./assets/sounds/1024hz.mp3","response":null,"trial_type":"audio-keyboard-response","trial_index":191,"time_elapsed":333067,"internal_node_id":"0.0-191.0","unixTimestamp":1705701177091},{"rt":null,"stimulus":"","response":null,"trial_type":"html-keyboard-response","trial_index":192,"time_elapsed":333320,"internal_node_id":"0.0-192.0","unixTimestamp":1705701177344},{"rt":null,"stimulus":"+","response":null,"trial_type":"html-keyboard-response","trial_index":193,"time_elapsed":333826,"internal_node_id":"0.0-193.0","unixTimestamp":1705701177850},{"rt":null,"stimulus":"./assets/sounds/1024hz.mp3","response":null,"trial_type":"audio-keyboard-response","trial_index":194,"time_elapsed":334335,"internal_node_id":"0.0-194.0","unixTimestamp":1705701178359},{"rt":null,"stimulus":"","response":null,"trial_type":"html-keyboard-response","trial_index":195,"time_elapsed":334587,"internal_node_id":"0.0-195.0","unixTimestamp":1705701178611},{"rt":null,"stimulus":"+","response":null,"trial_type":"html-keyboard-response","trial_index":196,"time_elapsed":335090,"internal_node_id":"0.0-196.0","unixTimestamp":1705701179114},{"rt":null,"stimulus":"./assets/sounds/1024hz.mp3","response":null,"trial_type":"audio-keyboard-response","trial_index":197,"time_elapsed":335597,"internal_node_id":"0.0-197.0","unixTimestamp":1705701179621},{"rt":null,"stimulus":"","response":null,"trial_type":"html-keyboard-response","trial_index":198,"time_elapsed":335851,"internal_node_id":"0.0-198.0","unixTimestamp":1705701179875},{"rt":null,"stimulus":"+","response":null,"trial_type":"html-keyboard-response","trial_index":199,"time_elapsed":336357,"internal_node_id":"0.0-199.0","unixTimestamp":1705701180381},{"rt":null,"stimulus":"./assets/sounds/1024hz.mp3","response":null,"trial_type":"audio-keyboard-response","trial_index":200,"time_elapsed":336864,"internal_node_id":"0.0-200.0","unixTimestamp":1705701180888},{"rt":null,"stimulus":"","response":null,"trial_type":"html-keyboard-response","trial_index":201,"time_elapsed":337117,"internal_node_id":"0.0-201.0","unixTimestamp":1705701181141},{"rt":null,"stimulus":"+","response":null,"trial_type":"html-keyboard-response","trial_index":202,"time_elapsed":337623,"internal_node_id":"0.0-202.0","unixTimestamp":1705701181647},{"rt":null,"stimulus":"./assets/sounds/1920hz.mp3","response":null,"trial_type":"audio-keyboard-response","trial_index":203,"time_elapsed":338121,"internal_node_id":"0.0-203.0","unixTimestamp":1705701182145},{"rt":null,"stimulus":"","response":null,"trial_type":"html-keyboard-response","trial_index":204,"time_elapsed":338372,"internal_node_id":"0.0-204.0","unixTimestamp":1705701182396},{"rt":null,"stimulus":"+","response":null,"trial_type":"html-keyboard-response","trial_index":205,"time_elapsed":338874,"internal_node_id":"0.0-205.0","unixTimestamp":1705701182898},{"rt":null,"stimulus":"./assets/sounds/1024hz.mp3","response":null,"trial_type":"audio-keyboard-response","trial_index":206,"time_elapsed":339378,"internal_node_id":"0.0-206.0","unixTimestamp":1705701183402},{"rt":null,"stimulus":"","response":null,"trial_type":"html-keyboard-response","trial_index":207,"time_elapsed":339630,"internal_node_id":"0.0-207.0","unixTimestamp":1705701183654},{"rt":null,"stimulus":"+","response":null,"trial_type":"html-keyboard-response","trial_index":208,"time_elapsed":340132,"internal_node_id":"0.0-208.0","unixTimestamp":1705701184156},{"rt":null,"stimulus":"./assets/sounds/1024hz.mp3","response":null,"trial_type":"audio-keyboard-response","trial_index":209,"time_elapsed":340635,"internal_node_id":"0.0-209.0","unixTimestamp":1705701184659},{"rt":null,"stimulus":"","response":null,"trial_type":"html-keyboard-response","trial_index":210,"time_elapsed":340887,"internal_node_id":"0.0-210.0","unixTimestamp":1705701184911},{"rt":null,"stimulus":"+","response":null,"trial_type":"html-keyboard-response","trial_index":211,"time_elapsed":341390,"internal_node_id":"0.0-211.0","unixTimestamp":1705701185414},{"rt":null,"stimulus":"./assets/sounds/1024hz.mp3","response":null,"trial_type":"audio-keyboard-response","trial_index":212,"time_elapsed":341897,"internal_node_id":"0.0-212.0","unixTimestamp":1705701185921},{"rt":null,"stimulus":"","response":null,"trial_type":"html-keyboard-response","trial_index":213,"time_elapsed":342150,"internal_node_id":"0.0-213.0","unixTimestamp":1705701186174},{"rt":null,"stimulus":"+","response":null,"trial_type":"html-keyboard-response","trial_index":214,"time_elapsed":342653,"internal_node_id":"0.0-214.0","unixTimestamp":1705701186677},{"rt":null,"stimulus":"./assets/sounds/1024hz.mp3","response":null,"trial_type":"audio-keyboard-response","trial_index":215,"time_elapsed":343154,"internal_node_id":"0.0-215.0","unixTimestamp":1705701187178},{"rt":null,"stimulus":"","response":null,"trial_type":"html-keyboard-response","trial_index":216,"time_elapsed":343412,"internal_node_id":"0.0-216.0","unixTimestamp":1705701187436},{"rt":null,"stimulus":"+","response":null,"trial_type":"html-keyboard-response","trial_index":217,"time_elapsed":343916,"internal_node_id":"0.0-217.0","unixTimestamp":1705701187940},{"rt":null,"stimulus":"./assets/sounds/1024hz.mp3","response":null,"trial_type":"audio-keyboard-response","trial_index":218,"time_elapsed":344423,"internal_node_id":"0.0-218.0","unixTimestamp":1705701188447},{"rt":null,"stimulus":"","response":null,"trial_type":"html-keyboard-response","trial_index":219,"time_elapsed":344680,"internal_node_id":"0.0-219.0","unixTimestamp":1705701188704},{"rt":null,"stimulus":"+","response":null,"trial_type":"html-keyboard-response","trial_index":220,"time_elapsed":345181,"internal_node_id":"0.0-220.0","unixTimestamp":1705701189205},{"rt":null,"stimulus":"./assets/sounds/1024hz.mp3","response":null,"trial_type":"audio-keyboard-response","trial_index":221,"time_elapsed":345686,"internal_node_id":"0.0-221.0","unixTimestamp":1705701189710},{"rt":null,"stimulus":"","response":null,"trial_type":"html-keyboard-response","trial_index":222,"time_elapsed":345938,"internal_node_id":"0.0-222.0","unixTimestamp":1705701189962},{"rt":null,"stimulus":"+","response":null,"trial_type":"html-keyboard-response","trial_index":223,"time_elapsed":346440,"internal_node_id":"0.0-223.0","unixTimestamp":1705701190464},{"rt":null,"stimulus":"./assets/sounds/1024hz.mp3","response":null,"trial_type":"audio-keyboard-response","trial_index":224,"time_elapsed":346948,"internal_node_id":"0.0-224.0","unixTimestamp":1705701190972},{"rt":null,"stimulus":"","response":null,"trial_type":"html-keyboard-response","trial_index":225,"time_elapsed":347200,"internal_node_id":"0.0-225.0","unixTimestamp":1705701191224},{"rt":null,"stimulus":"+","response":null,"trial_type":"html-keyboard-response","trial_index":226,"time_elapsed":347704,"internal_node_id":"0.0-226.0","unixTimestamp":1705701191728},{"rt":null,"stimulus":"./assets/sounds/1024hz.mp3","response":null,"trial_type":"audio-keyboard-response","trial_index":227,"time_elapsed":348205,"internal_node_id":"0.0-227.0","unixTimestamp":1705701192229},{"rt":null,"stimulus":"","response":null,"trial_type":"html-keyboard-response","trial_index":228,"time_elapsed":348458,"internal_node_id":"0.0-228.0","unixTimestamp":1705701192482},{"rt":null,"stimulus":"+","response":null,"trial_type":"html-keyboard-response","trial_index":229,"time_elapsed":348960,"internal_node_id":"0.0-229.0","unixTimestamp":1705701192984},{"rt":null,"stimulus":"./assets/sounds/1920hz.mp3","response":null,"trial_type":"audio-keyboard-response","trial_index":230,"time_elapsed":349467,"internal_node_id":"0.0-230.0","unixTimestamp":1705701193491},{"rt":null,"stimulus":"","response":null,"trial_type":"html-keyboard-response","trial_index":231,"time_elapsed":349721,"internal_node_id":"0.0-231.0","unixTimestamp":1705701193745},{"rt":null,"stimulus":"+","response":null,"trial_type":"html-keyboard-response","trial_index":232,"time_elapsed":350222,"internal_node_id":"0.0-232.0","unixTimestamp":1705701194246},{"rt":null,"stimulus":"./assets/sounds/1024hz.mp3","response":null,"trial_type":"audio-keyboard-response","trial_index":233,"time_elapsed":350724,"internal_node_id":"0.0-233.0","unixTimestamp":1705701194748},{"rt":null,"stimulus":"","response":null,"trial_type":"html-keyboard-response","trial_index":234,"time_elapsed":350974,"internal_node_id":"0.0-234.0","unixTimestamp":1705701194998},{"rt":null,"stimulus":"+","response":null,"trial_type":"html-keyboard-response","trial_index":235,"time_elapsed":351477,"internal_node_id":"0.0-235.0","unixTimestamp":1705701195501},{"rt":null,"stimulus":"./assets/sounds/1024hz.mp3","response":null,"trial_type":"audio-keyboard-response","trial_index":236,"time_elapsed":351986,"internal_node_id":"0.0-236.0","unixTimestamp":1705701196010},{"rt":null,"stimulus":"","response":null,"trial_type":"html-keyboard-response","trial_index":237,"time_elapsed":352239,"internal_node_id":"0.0-237.0","unixTimestamp":1705701196263},{"rt":null,"stimulus":"+","response":null,"trial_type":"html-keyboard-response","trial_index":238,"time_elapsed":352742,"internal_node_id":"0.0-238.0","unixTimestamp":1705701196766},{"rt":null,"stimulus":"./assets/sounds/1024hz.mp3","response":null,"trial_type":"audio-keyboard-response","trial_index":239,"time_elapsed":353243,"internal_node_id":"0.0-239.0","unixTimestamp":1705701197267},{"rt":null,"stimulus":"","response":null,"trial_type":"html-keyboard-response","trial_index":240,"time_elapsed":353499,"internal_node_id":"0.0-240.0","unixTimestamp":1705701197523},{"rt":null,"stimulus":"+","response":null,"trial_type":"html-keyboard-response","trial_index":241,"time_elapsed":354001,"internal_node_id":"0.0-241.0","unixTimestamp":1705701198025},{"rt":null,"stimulus":"./assets/sounds/1024hz.mp3","response":null,"trial_type":"audio-keyboard-response","trial_index":242,"time_elapsed":354506,"internal_node_id":"0.0-242.0","unixTimestamp":1705701198530},{"rt":null,"stimulus":"","response":null,"trial_type":"html-keyboard-response","trial_index":243,"time_elapsed":354762,"internal_node_id":"0.0-243.0","unixTimestamp":1705701198786},{"rt":null,"stimulus":"+","response":null,"trial_type":"html-keyboard-response","trial_index":244,"time_elapsed":355264,"internal_node_id":"0.0-244.0","unixTimestamp":1705701199288},{"rt":null,"stimulus":"./assets/sounds/1024hz.mp3","response":null,"trial_type":"audio-keyboard-response","trial_index":245,"time_elapsed":355769,"internal_node_id":"0.0-245.0","unixTimestamp":1705701199793},{"rt":null,"stimulus":"","response":null,"trial_type":"html-keyboard-response","trial_index":246,"time_elapsed":356023,"internal_node_id":"0.0-246.0","unixTimestamp":1705701200047},{"rt":null,"stimulus":"+","response":null,"trial_type":"html-keyboard-response","trial_index":247,"time_elapsed":356525,"internal_node_id":"0.0-247.0","unixTimestamp":1705701200549},{"rt":null,"stimulus":"./assets/sounds/1024hz.mp3","response":null,"trial_type":"audio-keyboard-response","trial_index":248,"time_elapsed":357033,"internal_node_id":"0.0-248.0","unixTimestamp":1705701201057},{"rt":null,"stimulus":"","response":null,"trial_type":"html-keyboard-response","trial_index":249,"time_elapsed":357290,"internal_node_id":"0.0-249.0","unixTimestamp":1705701201314},{"rt":null,"stimulus":"+","response":null,"trial_type":"html-keyboard-response","trial_index":250,"time_elapsed":357793,"internal_node_id":"0.0-250.0","unixTimestamp":1705701201817},{"rt":null,"stimulus":"./assets/sounds/1024hz.mp3","response":null,"trial_type":"audio-keyboard-response","trial_index":251,"time_elapsed":358293,"internal_node_id":"0.0-251.0","unixTimestamp":1705701202317},{"rt":null,"stimulus":"","response":null,"trial_type":"html-keyboard-response","trial_index":252,"time_elapsed":358545,"internal_node_id":"0.0-252.0","unixTimestamp":1705701202569},{"rt":null,"stimulus":"+","response":null,"trial_type":"html-keyboard-response","trial_index":253,"time_elapsed":359047,"internal_node_id":"0.0-253.0","unixTimestamp":1705701203071},{"rt":null,"stimulus":"./assets/sounds/1024hz.mp3","response":null,"trial_type":"audio-keyboard-response","trial_index":254,"time_elapsed":359556,"internal_node_id":"0.0-254.0","unixTimestamp":1705701203580},{"rt":null,"stimulus":"","response":null,"trial_type":"html-keyboard-response","trial_index":255,"time_elapsed":359810,"internal_node_id":"0.0-255.0","unixTimestamp":1705701203834},{"rt":null,"stimulus":"+","response":null,"trial_type":"html-keyboard-response","trial_index":256,"time_elapsed":360318,"internal_node_id":"0.0-256.0","unixTimestamp":1705701204342},{"rt":null,"stimulus":"./assets/sounds/1024hz.mp3","response":null,"trial_type":"audio-keyboard-response","trial_index":257,"time_elapsed":360819,"internal_node_id":"0.0-257.0","unixTimestamp":1705701204843},{"rt":null,"stimulus":"","response":null,"trial_type":"html-keyboard-response","trial_index":258,"time_elapsed":361076,"internal_node_id":"0.0-258.0","unixTimestamp":1705701205100},{"rt":null,"stimulus":"+","response":null,"trial_type":"html-keyboard-response","trial_index":259,"time_elapsed":361577,"internal_node_id":"0.0-259.0","unixTimestamp":1705701205601},{"rt":null,"stimulus":"./assets/sounds/1024hz.mp3","response":null,"trial_type":"audio-keyboard-response","trial_index":260,"time_elapsed":362087,"internal_node_id":"0.0-260.0","unixTimestamp":1705701206111},{"rt":null,"stimulus":"","response":null,"trial_type":"html-keyboard-response","trial_index":261,"time_elapsed":362339,"internal_node_id":"0.0-261.0","unixTimestamp":1705701206363},{"rt":null,"stimulus":"+","response":null,"trial_type":"html-keyboard-response","trial_index":262,"time_elapsed":362846,"internal_node_id":"0.0-262.0","unixTimestamp":1705701206870},{"rt":null,"stimulus":"./assets/sounds/1920hz.mp3","response":null,"trial_type":"audio-keyboard-response","trial_index":263,"time_elapsed":363354,"internal_node_id":"0.0-263.0","unixTimestamp":1705701207378},{"rt":null,"stimulus":"","response":null,"trial_type":"html-keyboard-response","trial_index":264,"time_elapsed":363611,"internal_node_id":"0.0-264.0","unixTimestamp":1705701207635},{"rt":null,"stimulus":"+","response":null,"trial_type":"html-keyboard-response","trial_index":265,"time_elapsed":364112,"internal_node_id":"0.0-265.0","unixTimestamp":1705701208136},{"rt":null,"stimulus":"./assets/sounds/1024hz.mp3","response":null,"trial_type":"audio-keyboard-response","trial_index":266,"time_elapsed":364621,"internal_node_id":"0.0-266.0","unixTimestamp":1705701208645},{"rt":null,"stimulus":"","response":null,"trial_type":"html-keyboard-response","trial_index":267,"time_elapsed":364877,"internal_node_id":"0.0-267.0","unixTimestamp":1705701208901},{"rt":null,"stimulus":"+","response":null,"trial_type":"html-keyboard-response","trial_index":268,"time_elapsed":365379,"internal_node_id":"0.0-268.0","unixTimestamp":1705701209403},{"rt":null,"stimulus":"./assets/sounds/1024hz.mp3","response":null,"trial_type":"audio-keyboard-response","trial_index":269,"time_elapsed":365882,"internal_node_id":"0.0-269.0","unixTimestamp":1705701209906},{"rt":null,"stimulus":"","response":null,"trial_type":"html-keyboard-response","trial_index":270,"time_elapsed":366135,"internal_node_id":"0.0-270.0","unixTimestamp":1705701210159},{"rt":null,"stimulus":"+","response":null,"trial_type":"html-keyboard-response","trial_index":271,"time_elapsed":366638,"internal_node_id":"0.0-271.0","unixTimestamp":1705701210662},{"rt":null,"stimulus":"./assets/sounds/1024hz.mp3","response":null,"trial_type":"audio-keyboard-response","trial_index":272,"time_elapsed":367154,"internal_node_id":"0.0-272.0","unixTimestamp":1705701211178},{"rt":null,"stimulus":"","response":null,"trial_type":"html-keyboard-response","trial_index":273,"time_elapsed":367406,"internal_node_id":"0.0-273.0","unixTimestamp":1705701211430},{"rt":null,"stimulus":"+","response":null,"trial_type":"html-keyboard-response","trial_index":274,"time_elapsed":367910,"internal_node_id":"0.0-274.0","unixTimestamp":1705701211934},{"rt":null,"stimulus":"./assets/sounds/1024hz.mp3","response":null,"trial_type":"audio-keyboard-response","trial_index":275,"time_elapsed":368412,"internal_node_id":"0.0-275.0","unixTimestamp":1705701212436},{"rt":null,"stimulus":"","response":null,"trial_type":"html-keyboard-response","trial_index":276,"time_elapsed":368665,"internal_node_id":"0.0-276.0","unixTimestamp":1705701212689},{"rt":null,"stimulus":"+","response":null,"trial_type":"html-keyboard-response","trial_index":277,"time_elapsed":369169,"internal_node_id":"0.0-277.0","unixTimestamp":1705701213193},{"rt":null,"stimulus":"./assets/sounds/1024hz.mp3","response":null,"trial_type":"audio-keyboard-response","trial_index":278,"time_elapsed":369681,"internal_node_id":"0.0-278.0","unixTimestamp":1705701213705},{"rt":null,"stimulus":"","response":null,"trial_type":"html-keyboard-response","trial_index":279,"time_elapsed":369935,"internal_node_id":"0.0-279.0","unixTimestamp":1705701213959},{"rt":null,"stimulus":"+","response":null,"trial_type":"html-keyboard-response","trial_index":280,"time_elapsed":370436,"internal_node_id":"0.0-280.0","unixTimestamp":1705701214460},{"rt":null,"stimulus":"./assets/sounds/1024hz.mp3","response":null,"trial_type":"audio-keyboard-response","trial_index":281,"time_elapsed":370937,"internal_node_id":"0.0-281.0","unixTimestamp":1705701214961},{"rt":null,"stimulus":"","response":null,"trial_type":"html-keyboard-response","trial_index":282,"time_elapsed":371189,"internal_node_id":"0.0-282.0","unixTimestamp":1705701215213},{"rt":null,"stimulus":"+","response":null,"trial_type":"html-keyboard-response","trial_index":283,"time_elapsed":371693,"internal_node_id":"0.0-283.0","unixTimestamp":1705701215717},{"rt":null,"stimulus":"./assets/sounds/1024hz.mp3","response":null,"trial_type":"audio-keyboard-response","trial_index":284,"time_elapsed":372199,"internal_node_id":"0.0-284.0","unixTimestamp":1705701216223},{"rt":null,"stimulus":"","response":null,"trial_type":"html-keyboard-response","trial_index":285,"time_elapsed":372459,"internal_node_id":"0.0-285.0","unixTimestamp":1705701216483},{"rt":null,"stimulus":"+","response":null,"trial_type":"html-keyboard-response","trial_index":286,"time_elapsed":372964,"internal_node_id":"0.0-286.0","unixTimestamp":1705701216988},{"rt":null,"stimulus":"./assets/sounds/1920hz.mp3","response":null,"trial_type":"audio-keyboard-response","trial_index":287,"time_elapsed":373468,"internal_node_id":"0.0-287.0","unixTimestamp":1705701217492},{"rt":null,"stimulus":"","response":null,"trial_type":"html-keyboard-response","trial_index":288,"time_elapsed":373719,"internal_node_id":"0.0-288.0","unixTimestamp":1705701217743},{"rt":null,"stimulus":"+","response":null,"trial_type":"html-keyboard-response","trial_index":289,"time_elapsed":374223,"internal_node_id":"0.0-289.0","unixTimestamp":1705701218247},{"rt":null,"stimulus":"./assets/sounds/1024hz.mp3","response":null,"trial_type":"audio-keyboard-response","trial_index":290,"time_elapsed":374730,"internal_node_id":"0.0-290.0","unixTimestamp":1705701218754},{"rt":null,"stimulus":"","response":null,"trial_type":"html-keyboard-response","trial_index":291,"time_elapsed":374982,"internal_node_id":"0.0-291.0","unixTimestamp":1705701219006},{"rt":null,"stimulus":"+","response":null,"trial_type":"html-keyboard-response","trial_index":292,"time_elapsed":375486,"internal_node_id":"0.0-292.0","unixTimestamp":1705701219510},{"rt":null,"stimulus":"./assets/sounds/1024hz.mp3","response":null,"trial_type":"audio-keyboard-response","trial_index":293,"time_elapsed":375988,"internal_node_id":"0.0-293.0","unixTimestamp":1705701220012},{"rt":null,"stimulus":"","response":null,"trial_type":"html-keyboard-response","trial_index":294,"time_elapsed":376242,"internal_node_id":"0.0-294.0","unixTimestamp":1705701220266},{"rt":null,"stimulus":"+","response":null,"trial_type":"html-keyboard-response","trial_index":295,"time_elapsed":376748,"internal_node_id":"0.0-295.0","unixTimestamp":1705701220772},{"rt":null,"stimulus":"./assets/sounds/1024hz.mp3","response":null,"trial_type":"audio-keyboard-response","trial_index":296,"time_elapsed":377255,"internal_node_id":"0.0-296.0","unixTimestamp":1705701221279},{"rt":null,"stimulus":"","response":null,"trial_type":"html-keyboard-response","trial_index":297,"time_elapsed":377508,"internal_node_id":"0.0-297.0","unixTimestamp":1705701221532},{"rt":null,"stimulus":"+","response":null,"trial_type":"html-keyboard-response","trial_index":298,"time_elapsed":378011,"internal_node_id":"0.0-298.0","unixTimestamp":1705701222035},{"rt":null,"stimulus":"./assets/sounds/1024hz.mp3","response":null,"trial_type":"audio-keyboard-response","trial_index":299,"time_elapsed":378516,"internal_node_id":"0.0-299.0","unixTimestamp":1705701222540},{"rt":null,"stimulus":"","response":null,"trial_type":"html-keyboard-response","trial_index":300,"time_elapsed":378771,"internal_node_id":"0.0-300.0","unixTimestamp":1705701222795},{"rt":null,"stimulus":"+","response":null,"trial_type":"html-keyboard-response","trial_index":301,"time_elapsed":379272,"internal_node_id":"0.0-301.0","unixTimestamp":1705701223296},{"rt":null,"stimulus":"./assets/sounds/1024hz.mp3","response":null,"trial_type":"audio-keyboard-response","trial_index":302,"time_elapsed":379781,"internal_node_id":"0.0-302.0","unixTimestamp":1705701223805},{"rt":null,"stimulus":"","response":null,"trial_type":"html-keyboard-response","trial_index":303,"time_elapsed":380034,"internal_node_id":"0.0-303.0","unixTimestamp":1705701224058},{"rt":null,"stimulus":"+","response":null,"trial_type":"html-keyboard-response","trial_index":304,"time_elapsed":380536,"internal_node_id":"0.0-304.0","unixTimestamp":1705701224560},{"rt":null,"stimulus":"./assets/sounds/1024hz.mp3","response":null,"trial_type":"audio-keyboard-response","trial_index":305,"time_elapsed":381037,"internal_node_id":"0.0-305.0","unixTimestamp":1705701225061},{"rt":null,"stimulus":"","response":null,"trial_type":"html-keyboard-response","trial_index":306,"time_elapsed":381289,"internal_node_id":"0.0-306.0","unixTimestamp":1705701225313},{"rt":null,"stimulus":"+","response":null,"trial_type":"html-keyboard-response","trial_index":307,"time_elapsed":381792,"internal_node_id":"0.0-307.0","unixTimestamp":1705701225816},{"rt":null,"stimulus":"./assets/sounds/1024hz.mp3","response":null,"trial_type":"audio-keyboard-response","trial_index":308,"time_elapsed":382300,"internal_node_id":"0.0-308.0","unixTimestamp":1705701226324},{"rt":null,"stimulus":"","response":null,"trial_type":"html-keyboard-response","trial_index":309,"time_elapsed":382554,"internal_node_id":"0.0-309.0","unixTimestamp":1705701226578},{"rt":null,"stimulus":"+","response":null,"trial_type":"html-keyboard-response","trial_index":310,"time_elapsed":383059,"internal_node_id":"0.0-310.0","unixTimestamp":1705701227083},{"rt":null,"stimulus":"./assets/sounds/1920hz.mp3","response":null,"trial_type":"audio-keyboard-response","trial_index":311,"time_elapsed":383563,"internal_node_id":"0.0-311.0","unixTimestamp":1705701227587},{"rt":null,"stimulus":"","response":null,"trial_type":"html-keyboard-response","trial_index":312,"time_elapsed":383819,"internal_node_id":"0.0-312.0","unixTimestamp":1705701227843},{"rt":null,"stimulus":"+","response":null,"trial_type":"html-keyboard-response","trial_index":313,"time_elapsed":384320,"internal_node_id":"0.0-313.0","unixTimestamp":1705701228344},{"rt":null,"stimulus":"./assets/sounds/1024hz.mp3","response":null,"trial_type":"audio-keyboard-response","trial_index":314,"time_elapsed":384825,"internal_node_id":"0.0-314.0","unixTimestamp":1705701228849},{"rt":null,"stimulus":"","response":null,"trial_type":"html-keyboard-response","trial_index":315,"time_elapsed":385081,"internal_node_id":"0.0-315.0","unixTimestamp":1705701229105},{"rt":null,"stimulus":"+","response":null,"trial_type":"html-keyboard-response","trial_index":316,"time_elapsed":385583,"internal_node_id":"0.0-316.0","unixTimestamp":1705701229607},{"rt":null,"stimulus":"./assets/sounds/1024hz.mp3","response":null,"trial_type":"audio-keyboard-response","trial_index":317,"time_elapsed":386083,"internal_node_id":"0.0-317.0","unixTimestamp":1705701230107},{"rt":null,"stimulus":"","response":null,"trial_type":"html-keyboard-response","trial_index":318,"time_elapsed":386338,"internal_node_id":"0.0-318.0","unixTimestamp":1705701230362},{"rt":null,"stimulus":"+","response":null,"trial_type":"html-keyboard-response","trial_index":319,"time_elapsed":386839,"internal_node_id":"0.0-319.0","unixTimestamp":1705701230863},{"rt":null,"stimulus":"./assets/sounds/1024hz.mp3","response":null,"trial_type":"audio-keyboard-response","trial_index":320,"time_elapsed":387344,"internal_node_id":"0.0-320.0","unixTimestamp":1705701231368},{"rt":null,"stimulus":"","response":null,"trial_type":"html-keyboard-response","trial_index":321,"time_elapsed":387598,"internal_node_id":"0.0-321.0","unixTimestamp":1705701231622},{"rt":null,"stimulus":"+","response":null,"trial_type":"html-keyboard-response","trial_index":322,"time_elapsed":388102,"internal_node_id":"0.0-322.0","unixTimestamp":1705701232126},{"rt":null,"stimulus":"./assets/sounds/1024hz.mp3","response":null,"trial_type":"audio-keyboard-response","trial_index":323,"time_elapsed":388607,"internal_node_id":"0.0-323.0","unixTimestamp":1705701232631},{"rt":null,"stimulus":"","response":null,"trial_type":"html-keyboard-response","trial_index":324,"time_elapsed":388861,"internal_node_id":"0.0-324.0","unixTimestamp":1705701232885},{"rt":null,"stimulus":"+","response":null,"trial_type":"html-keyboard-response","trial_index":325,"time_elapsed":389363,"internal_node_id":"0.0-325.0","unixTimestamp":1705701233387},{"rt":null,"stimulus":"./assets/sounds/1024hz.mp3","response":null,"trial_type":"audio-keyboard-response","trial_index":326,"time_elapsed":389870,"internal_node_id":"0.0-326.0","unixTimestamp":1705701233894},{"rt":null,"stimulus":"","response":null,"trial_type":"html-keyboard-response","trial_index":327,"time_elapsed":390123,"internal_node_id":"0.0-327.0","unixTimestamp":1705701234147},{"rt":null,"stimulus":"+","response":null,"trial_type":"html-keyboard-response","trial_index":328,"time_elapsed":390624,"internal_node_id":"0.0-328.0","unixTimestamp":1705701234648},{"rt":null,"stimulus":"./assets/sounds/1024hz.mp3","response":null,"trial_type":"audio-keyboard-response","trial_index":329,"time_elapsed":391126,"internal_node_id":"0.0-329.0","unixTimestamp":1705701235150},{"rt":null,"stimulus":"","response":null,"trial_type":"html-keyboard-response","trial_index":330,"time_elapsed":391381,"internal_node_id":"0.0-330.0","unixTimestamp":1705701235405},{"rt":null,"stimulus":"+","response":null,"trial_type":"html-keyboard-response","trial_index":331,"time_elapsed":391882,"internal_node_id":"0.0-331.0","unixTimestamp":1705701235906},{"rt":null,"stimulus":"./assets/sounds/1024hz.mp3","response":null,"trial_type":"audio-keyboard-response","trial_index":332,"time_elapsed":392389,"internal_node_id":"0.0-332.0","unixTimestamp":1705701236413},{"rt":null,"stimulus":"","response":null,"trial_type":"html-keyboard-response","trial_index":333,"time_elapsed":392645,"internal_node_id":"0.0-333.0","unixTimestamp":1705701236669},{"rt":null,"stimulus":"+","response":null,"trial_type":"html-keyboard-response","trial_index":334,"time_elapsed":393150,"internal_node_id":"0.0-334.0","unixTimestamp":1705701237174},{"rt":null,"stimulus":"./assets/sounds/1024hz.mp3","response":null,"trial_type":"audio-keyboard-response","trial_index":335,"time_elapsed":393652,"internal_node_id":"0.0-335.0","unixTimestamp":1705701237676},{"rt":null,"stimulus":"","response":null,"trial_type":"html-keyboard-response","trial_index":336,"time_elapsed":393903,"internal_node_id":"0.0-336.0","unixTimestamp":1705701237927},{"rt":null,"stimulus":"+","response":null,"trial_type":"html-keyboard-response","trial_index":337,"time_elapsed":394405,"internal_node_id":"0.0-337.0","unixTimestamp":1705701238429},{"rt":null,"stimulus":"./assets/sounds/1024hz.mp3","response":null,"trial_type":"audio-keyboard-response","trial_index":338,"time_elapsed":394914,"internal_node_id":"0.0-338.0","unixTimestamp":1705701238938},{"rt":null,"stimulus":"","response":null,"trial_type":"html-keyboard-response","trial_index":339,"time_elapsed":395170,"internal_node_id":"0.0-339.0","unixTimestamp":1705701239194},{"rt":null,"stimulus":"+","response":null,"trial_type":"html-keyboard-response","trial_index":340,"time_elapsed":395672,"internal_node_id":"0.0-340.0","unixTimestamp":1705701239696},{"rt":null,"stimulus":"./assets/sounds/1024hz.mp3","response":null,"trial_type":"audio-keyboard-response","trial_index":341,"time_elapsed":396172,"internal_node_id":"0.0-341.0","unixTimestamp":1705701240196},{"rt":null,"stimulus":"","response":null,"trial_type":"html-keyboard-response","trial_index":342,"time_elapsed":396427,"internal_node_id":"0.0-342.0","unixTimestamp":1705701240451},{"rt":null,"stimulus":"+","response":null,"trial_type":"html-keyboard-response","trial_index":343,"time_elapsed":396930,"internal_node_id":"0.0-343.0","unixTimestamp":1705701240954},{"rt":null,"stimulus":"./assets/sounds/1920hz.mp3","response":null,"trial_type":"audio-keyboard-response","trial_index":344,"time_elapsed":397440,"internal_node_id":"0.0-344.0","unixTimestamp":1705701241464},{"rt":null,"stimulus":"","response":null,"trial_type":"html-keyboard-response","trial_index":345,"time_elapsed":397691,"internal_node_id":"0.0-345.0","unixTimestamp":1705701241715},{"rt":null,"stimulus":"+","response":null,"trial_type":"html-keyboard-response","trial_index":346,"time_elapsed":398201,"internal_node_id":"0.0-346.0","unixTimestamp":1705701242225},{"rt":null,"stimulus":"./assets/sounds/1024hz.mp3","response":null,"trial_type":"audio-keyboard-response","trial_index":347,"time_elapsed":398702,"internal_node_id":"0.0-347.0","unixTimestamp":1705701242726},{"rt":null,"stimulus":"","response":null,"trial_type":"html-keyboard-response","trial_index":348,"time_elapsed":398953,"internal_node_id":"0.0-348.0","unixTimestamp":1705701242977},{"rt":null,"stimulus":"+","response":null,"trial_type":"html-keyboard-response","trial_index":349,"time_elapsed":399454,"internal_node_id":"0.0-349.0","unixTimestamp":1705701243478},{"rt":null,"stimulus":"./assets/sounds/1024hz.mp3","response":null,"trial_type":"audio-keyboard-response","trial_index":350,"time_elapsed":399960,"internal_node_id":"0.0-350.0","unixTimestamp":1705701243984},{"rt":null,"stimulus":"","response":null,"trial_type":"html-keyboard-response","trial_index":351,"time_elapsed":400222,"internal_node_id":"0.0-351.0","unixTimestamp":1705701244246},{"rt":null,"stimulus":"+","response":null,"trial_type":"html-keyboard-response","trial_index":352,"time_elapsed":400727,"internal_node_id":"0.0-352.0","unixTimestamp":1705701244751},{"rt":null,"stimulus":"./assets/sounds/1024hz.mp3","response":null,"trial_type":"audio-keyboard-response","trial_index":353,"time_elapsed":401227,"internal_node_id":"0.0-353.0","unixTimestamp":1705701245251},{"rt":null,"stimulus":"","response":null,"trial_type":"html-keyboard-response","trial_index":354,"time_elapsed":401481,"internal_node_id":"0.0-354.0","unixTimestamp":1705701245505},{"rt":null,"stimulus":"+","response":null,"trial_type":"html-keyboard-response","trial_index":355,"time_elapsed":401983,"internal_node_id":"0.0-355.0","unixTimestamp":1705701246007},{"rt":null,"stimulus":"./assets/sounds/1024hz.mp3","response":null,"trial_type":"audio-keyboard-response","trial_index":356,"time_elapsed":402490,"internal_node_id":"0.0-356.0","unixTimestamp":1705701246514},{"rt":null,"stimulus":"","response":null,"trial_type":"html-keyboard-response","trial_index":357,"time_elapsed":402752,"internal_node_id":"0.0-357.0","unixTimestamp":1705701246776},{"rt":null,"stimulus":"+","response":null,"trial_type":"html-keyboard-response","trial_index":358,"time_elapsed":403254,"internal_node_id":"0.0-358.0","unixTimestamp":1705701247278},{"rt":null,"stimulus":"./assets/sounds/1024hz.mp3","response":null,"trial_type":"audio-keyboard-response","trial_index":359,"time_elapsed":403758,"internal_node_id":"0.0-359.0","unixTimestamp":1705701247782},{"rt":null,"stimulus":"","response":null,"trial_type":"html-keyboard-response","trial_index":360,"time_elapsed":404009,"internal_node_id":"0.0-360.0","unixTimestamp":1705701248033},{"rt":null,"stimulus":"+","response":null,"trial_type":"html-keyboard-response","trial_index":361,"time_elapsed":404511,"internal_node_id":"0.0-361.0","unixTimestamp":1705701248535},{"rt":null,"stimulus":"./assets/sounds/1024hz.mp3","response":null,"trial_type":"audio-keyboard-response","trial_index":362,"time_elapsed":405021,"internal_node_id":"0.0-362.0","unixTimestamp":1705701249045},{"rt":null,"stimulus":"","response":null,"trial_type":"html-keyboard-response","trial_index":363,"time_elapsed":405272,"internal_node_id":"0.0-363.0","unixTimestamp":1705701249296},{"rt":null,"stimulus":"+","response":null,"trial_type":"html-keyboard-response","trial_index":364,"time_elapsed":405775,"internal_node_id":"0.0-364.0","unixTimestamp":1705701249799},{"rt":null,"stimulus":"./assets/sounds/1920hz.mp3","response":null,"trial_type":"audio-keyboard-response","trial_index":365,"time_elapsed":406278,"internal_node_id":"0.0-365.0","unixTimestamp":1705701250302},{"rt":null,"stimulus":"","response":null,"trial_type":"html-keyboard-response","trial_index":366,"time_elapsed":406531,"internal_node_id":"0.0-366.0","unixTimestamp":1705701250555},{"rt":null,"stimulus":"+","response":null,"trial_type":"html-keyboard-response","trial_index":367,"time_elapsed":407034,"internal_node_id":"0.0-367.0","unixTimestamp":1705701251058},{"rt":null,"stimulus":"./assets/sounds/1024hz.mp3","response":null,"trial_type":"audio-keyboard-response","trial_index":368,"time_elapsed":407540,"internal_node_id":"0.0-368.0","unixTimestamp":1705701251564},{"rt":null,"stimulus":"","response":null,"trial_type":"html-keyboard-response","trial_index":369,"time_elapsed":407791,"internal_node_id":"0.0-369.0","unixTimestamp":1705701251815},{"rt":null,"stimulus":"+","response":null,"trial_type":"html-keyboard-response","trial_index":370,"time_elapsed":408293,"internal_node_id":"0.0-370.0","unixTimestamp":1705701252317},{"rt":null,"stimulus":"./assets/sounds/1024hz.mp3","response":null,"trial_type":"audio-keyboard-response","trial_index":371,"time_elapsed":408797,"internal_node_id":"0.0-371.0","unixTimestamp":1705701252821},{"rt":null,"stimulus":"","response":null,"trial_type":"html-keyboard-response","trial_index":372,"time_elapsed":409053,"internal_node_id":"0.0-372.0","unixTimestamp":1705701253077},{"rt":null,"stimulus":"+","response":null,"trial_type":"html-keyboard-response","trial_index":373,"time_elapsed":409555,"internal_node_id":"0.0-373.0","unixTimestamp":1705701253579},{"rt":null,"stimulus":"./assets/sounds/1024hz.mp3","response":null,"trial_type":"audio-keyboard-response","trial_index":374,"time_elapsed":410061,"internal_node_id":"0.0-374.0","unixTimestamp":1705701254085},{"rt":null,"stimulus":"","response":null,"trial_type":"html-keyboard-response","trial_index":375,"time_elapsed":410317,"internal_node_id":"0.0-375.0","unixTimestamp":1705701254341},{"rt":null,"stimulus":"+","response":null,"trial_type":"html-keyboard-response","trial_index":376,"time_elapsed":410821,"internal_node_id":"0.0-376.0","unixTimestamp":1705701254845},{"rt":null,"stimulus":"./assets/sounds/1024hz.mp3","response":null,"trial_type":"audio-keyboard-response","trial_index":377,"time_elapsed":411323,"internal_node_id":"0.0-377.0","unixTimestamp":1705701255347},{"rt":null,"stimulus":"","response":null,"trial_type":"html-keyboard-response","trial_index":378,"time_elapsed":411574,"internal_node_id":"0.0-378.0","unixTimestamp":1705701255598},{"rt":null,"stimulus":"+","response":null,"trial_type":"html-keyboard-response","trial_index":379,"time_elapsed":412077,"internal_node_id":"0.0-379.0","unixTimestamp":1705701256101},{"rt":null,"stimulus":"./assets/sounds/1024hz.mp3","response":null,"trial_type":"audio-keyboard-response","trial_index":380,"time_elapsed":412585,"internal_node_id":"0.0-380.0","unixTimestamp":1705701256609},{"rt":null,"stimulus":"","response":null,"trial_type":"html-keyboard-response","trial_index":381,"time_elapsed":412838,"internal_node_id":"0.0-381.0","unixTimestamp":1705701256862},{"rt":null,"stimulus":"+","response":null,"trial_type":"html-keyboard-response","trial_index":382,"time_elapsed":413342,"internal_node_id":"0.0-382.0","unixTimestamp":1705701257366},{"rt":null,"stimulus":"./assets/sounds/1024hz.mp3","response":null,"trial_type":"audio-keyboard-response","trial_index":383,"time_elapsed":413842,"internal_node_id":"0.0-383.0","unixTimestamp":1705701257866},{"rt":null,"stimulus":"","response":null,"trial_type":"html-keyboard-response","trial_index":384,"time_elapsed":414094,"internal_node_id":"0.0-384.0","unixTimestamp":1705701258118},{"rt":null,"stimulus":"+","response":null,"trial_type":"html-keyboard-response","trial_index":385,"time_elapsed":414597,"internal_node_id":"0.0-385.0","unixTimestamp":1705701258621},{"rt":null,"stimulus":"./assets/sounds/1024hz.mp3","response":null,"trial_type":"audio-keyboard-response","trial_index":386,"time_elapsed":415105,"internal_node_id":"0.0-386.0","unixTimestamp":1705701259129},{"rt":null,"stimulus":"","response":null,"trial_type":"html-keyboard-response","trial_index":387,"time_elapsed":415358,"internal_node_id":"0.0-387.0","unixTimestamp":1705701259382},{"rt":null,"stimulus":"+","response":null,"trial_type":"html-keyboard-response","trial_index":388,"time_elapsed":415863,"internal_node_id":"0.0-388.0","unixTimestamp":1705701259887},{"rt":null,"stimulus":"./assets/sounds/1920hz.mp3","response":null,"trial_type":"audio-keyboard-response","trial_index":389,"time_elapsed":416368,"internal_node_id":"0.0-389.0","unixTimestamp":1705701260392},{"rt":null,"stimulus":"","response":null,"trial_type":"html-keyboard-response","trial_index":390,"time_elapsed":416621,"internal_node_id":"0.0-390.0","unixTimestamp":1705701260645},{"rt":null,"stimulus":"+","response":null,"trial_type":"html-keyboard-response","trial_index":391,"time_elapsed":417124,"internal_node_id":"0.0-391.0","unixTimestamp":1705701261148},{"rt":null,"stimulus":"./assets/sounds/1024hz.mp3","response":null,"trial_type":"audio-keyboard-response","trial_index":392,"time_elapsed":417629,"internal_node_id":"0.0-392.0","unixTimestamp":1705701261653},{"rt":null,"stimulus":"","response":null,"trial_type":"html-keyboard-response","trial_index":393,"time_elapsed":417885,"internal_node_id":"0.0-393.0","unixTimestamp":1705701261909},{"rt":null,"stimulus":"+","response":null,"trial_type":"html-keyboard-response","trial_index":394,"time_elapsed":418389,"internal_node_id":"0.0-394.0","unixTimestamp":1705701262413},{"rt":null,"stimulus":"./assets/sounds/1024hz.mp3","response":null,"trial_type":"audio-keyboard-response","trial_index":395,"time_elapsed":418892,"internal_node_id":"0.0-395.0","unixTimestamp":1705701262916},{"rt":null,"stimulus":"","response":null,"trial_type":"html-keyboard-response","trial_index":396,"time_elapsed":419144,"internal_node_id":"0.0-396.0","unixTimestamp":1705701263168},{"rt":null,"stimulus":"+","response":null,"trial_type":"html-keyboard-response","trial_index":397,"time_elapsed":419648,"internal_node_id":"0.0-397.0","unixTimestamp":1705701263672},{"rt":null,"stimulus":"./assets/sounds/1024hz.mp3","response":null,"trial_type":"audio-keyboard-response","trial_index":398,"time_elapsed":420155,"internal_node_id":"0.0-398.0","unixTimestamp":1705701264179},{"rt":null,"stimulus":"","response":null,"trial_type":"html-keyboard-response","trial_index":399,"time_elapsed":420407,"internal_node_id":"0.0-399.0","unixTimestamp":1705701264431},{"rt":null,"stimulus":"+","response":null,"trial_type":"html-keyboard-response","trial_index":400,"time_elapsed":420911,"internal_node_id":"0.0-400.0","unixTimestamp":1705701264935},{"rt":null,"stimulus":"./assets/sounds/1024hz.mp3","response":null,"trial_type":"audio-keyboard-response","trial_index":401,"time_elapsed":421411,"internal_node_id":"0.0-401.0","unixTimestamp":1705701265435},{"rt":null,"stimulus":"","response":null,"trial_type":"html-keyboard-response","trial_index":402,"time_elapsed":421671,"internal_node_id":"0.0-402.0","unixTimestamp":1705701265695},{"rt":null,"stimulus":"+","response":null,"trial_type":"html-keyboard-response","trial_index":403,"time_elapsed":422177,"internal_node_id":"0.0-403.0","unixTimestamp":1705701266201},{"rt":null,"stimulus":"./assets/sounds/1024hz.mp3","response":null,"trial_type":"audio-keyboard-response","trial_index":404,"time_elapsed":422686,"internal_node_id":"0.0-404.0","unixTimestamp":1705701266710},{"rt":null,"stimulus":"","response":null,"trial_type":"html-keyboard-response","trial_index":405,"time_elapsed":422938,"internal_node_id":"0.0-405.0","unixTimestamp":1705701266962},{"rt":null,"stimulus":"+","response":null,"trial_type":"html-keyboard-response","trial_index":406,"time_elapsed":423439,"internal_node_id":"0.0-406.0","unixTimestamp":1705701267463},{"rt":null,"stimulus":"./assets/sounds/1024hz.mp3","response":null,"trial_type":"audio-keyboard-response","trial_index":407,"time_elapsed":423944,"internal_node_id":"0.0-407.0","unixTimestamp":1705701267968},{"rt":null,"stimulus":"","response":null,"trial_type":"html-keyboard-response","trial_index":408,"time_elapsed":424196,"internal_node_id":"0.0-408.0","unixTimestamp":1705701268220},{"rt":null,"stimulus":"+","response":null,"trial_type":"html-keyboard-response","trial_index":409,"time_elapsed":424704,"internal_node_id":"0.0-409.0","unixTimestamp":1705701268728},{"rt":null,"stimulus":"./assets/sounds/1024hz.mp3","response":null,"trial_type":"audio-keyboard-response","trial_index":410,"time_elapsed":425210,"internal_node_id":"0.0-410.0","unixTimestamp":1705701269234},{"rt":null,"stimulus":"","response":null,"trial_type":"html-keyboard-response","trial_index":411,"time_elapsed":425469,"internal_node_id":"0.0-411.0","unixTimestamp":1705701269493},{"rt":null,"stimulus":"+","response":null,"trial_type":"html-keyboard-response","trial_index":412,"time_elapsed":425976,"internal_node_id":"0.0-412.0","unixTimestamp":1705701270000},{"rt":null,"stimulus":"./assets/sounds/1024hz.mp3","response":null,"trial_type":"audio-keyboard-response","trial_index":413,"time_elapsed":426479,"internal_node_id":"0.0-413.0","unixTimestamp":1705701270503},{"rt":null,"stimulus":"","response":null,"trial_type":"html-keyboard-response","trial_index":414,"time_elapsed":426730,"internal_node_id":"0.0-414.0","unixTimestamp":1705701270754},{"rt":null,"stimulus":"+","response":null,"trial_type":"html-keyboard-response","trial_index":415,"time_elapsed":427232,"internal_node_id":"0.0-415.0","unixTimestamp":1705701271256},{"rt":null,"stimulus":"./assets/sounds/1024hz.mp3","response":null,"trial_type":"audio-keyboard-response","trial_index":416,"time_elapsed":427736,"internal_node_id":"0.0-416.0","unixTimestamp":1705701271760},{"rt":null,"stimulus":"","response":null,"trial_type":"html-keyboard-response","trial_index":417,"time_elapsed":427993,"internal_node_id":"0.0-417.0","unixTimestamp":1705701272017},{"rt":null,"stimulus":"+","response":null,"trial_type":"html-keyboard-response","trial_index":418,"time_elapsed":428499,"internal_node_id":"0.0-418.0","unixTimestamp":1705701272523},{"rt":null,"stimulus":"./assets/sounds/1024hz.mp3","response":null,"trial_type":"audio-keyboard-response","trial_index":419,"time_elapsed":428998,"internal_node_id":"0.0-419.0","unixTimestamp":1705701273022},{"rt":null,"stimulus":"","response":null,"trial_type":"html-keyboard-response","trial_index":420,"time_elapsed":429252,"internal_node_id":"0.0-420.0","unixTimestamp":1705701273276},{"rt":null,"stimulus":"+","response":null,"trial_type":"html-keyboard-response","trial_index":421,"time_elapsed":429753,"internal_node_id":"0.0-421.0","unixTimestamp":1705701273777},{"rt":null,"stimulus":"./assets/sounds/1920hz.mp3","response":null,"trial_type":"audio-keyboard-response","trial_index":422,"time_elapsed":430261,"internal_node_id":"0.0-422.0","unixTimestamp":1705701274285},{"rt":null,"stimulus":"","response":null,"trial_type":"html-keyboard-response","trial_index":423,"time_elapsed":430515,"internal_node_id":"0.0-423.0","unixTimestamp":1705701274539},{"rt":null,"stimulus":"+","response":null,"trial_type":"html-keyboard-response","trial_index":424,"time_elapsed":431021,"internal_node_id":"0.0-424.0","unixTimestamp":1705701275045},{"rt":null,"stimulus":"./assets/sounds/1024hz.mp3","response":null,"trial_type":"audio-keyboard-response","trial_index":425,"time_elapsed":431523,"internal_node_id":"0.0-425.0","unixTimestamp":1705701275547},{"rt":null,"stimulus":"","response":null,"trial_type":"html-keyboard-response","trial_index":426,"time_elapsed":431775,"internal_node_id":"0.0-426.0","unixTimestamp":1705701275799},{"rt":null,"stimulus":"+","response":null,"trial_type":"html-keyboard-response","trial_index":427,"time_elapsed":432276,"internal_node_id":"0.0-427.0","unixTimestamp":1705701276300},{"rt":null,"stimulus":"./assets/sounds/1024hz.mp3","response":null,"trial_type":"audio-keyboard-response","trial_index":428,"time_elapsed":432780,"internal_node_id":"0.0-428.0","unixTimestamp":1705701276804},{"rt":null,"stimulus":"","response":null,"trial_type":"html-keyboard-response","trial_index":429,"time_elapsed":433034,"internal_node_id":"0.0-429.0","unixTimestamp":1705701277058},{"rt":null,"stimulus":"+","response":null,"trial_type":"html-keyboard-response","trial_index":430,"time_elapsed":433540,"internal_node_id":"0.0-430.0","unixTimestamp":1705701277564},{"rt":null,"stimulus":"./assets/sounds/1024hz.mp3","response":null,"trial_type":"audio-keyboard-response","trial_index":431,"time_elapsed":434043,"internal_node_id":"0.0-431.0","unixTimestamp":1705701278067},{"rt":null,"stimulus":"","response":null,"trial_type":"html-keyboard-response","trial_index":432,"time_elapsed":434294,"internal_node_id":"0.0-432.0","unixTimestamp":1705701278318},{"rt":null,"stimulus":"+","response":null,"trial_type":"html-keyboard-response","trial_index":433,"time_elapsed":434796,"internal_node_id":"0.0-433.0","unixTimestamp":1705701278820},{"rt":null,"stimulus":"./assets/sounds/1024hz.mp3","response":null,"trial_type":"audio-keyboard-response","trial_index":434,"time_elapsed":435306,"internal_node_id":"0.0-434.0","unixTimestamp":1705701279330},{"rt":null,"stimulus":"","response":null,"trial_type":"html-keyboard-response","trial_index":435,"time_elapsed":435559,"internal_node_id":"0.0-435.0","unixTimestamp":1705701279583},{"rt":null,"stimulus":"+","response":null,"trial_type":"html-keyboard-response","trial_index":436,"time_elapsed":436061,"internal_node_id":"0.0-436.0","unixTimestamp":1705701280085},{"rt":null,"stimulus":"./assets/sounds/1024hz.mp3","response":null,"trial_type":"audio-keyboard-response","trial_index":437,"time_elapsed":436562,"internal_node_id":"0.0-437.0","unixTimestamp":1705701280586},{"rt":null,"stimulus":"","response":null,"trial_type":"html-keyboard-response","trial_index":438,"time_elapsed":436813,"internal_node_id":"0.0-438.0","unixTimestamp":1705701280837},{"rt":null,"stimulus":"+","response":null,"trial_type":"html-keyboard-response","trial_index":439,"time_elapsed":437318,"internal_node_id":"0.0-439.0","unixTimestamp":1705701281342},{"rt":null,"stimulus":"./assets/sounds/1024hz.mp3","response":null,"trial_type":"audio-keyboard-response","trial_index":440,"time_elapsed":437825,"internal_node_id":"0.0-440.0","unixTimestamp":1705701281849},{"rt":null,"stimulus":"","response":null,"trial_type":"html-keyboard-response","trial_index":441,"time_elapsed":438093,"internal_node_id":"0.0-441.0","unixTimestamp":1705701282117},{"rt":null,"stimulus":"+","response":null,"trial_type":"html-keyboard-response","trial_index":442,"time_elapsed":438603,"internal_node_id":"0.0-442.0","unixTimestamp":1705701282627},{"rt":null,"stimulus":"./assets/sounds/1024hz.mp3","response":null,"trial_type":"audio-keyboard-response","trial_index":443,"time_elapsed":439106,"internal_node_id":"0.0-443.0","unixTimestamp":1705701283130},{"rt":null,"stimulus":"","response":null,"trial_type":"html-keyboard-response","trial_index":444,"time_elapsed":439357,"internal_node_id":"0.0-444.0","unixTimestamp":1705701283381},{"rt":null,"stimulus":"+","response":null,"trial_type":"html-keyboard-response","trial_index":445,"time_elapsed":439860,"internal_node_id":"0.0-445.0","unixTimestamp":1705701283884},{"rt":null,"stimulus":"./assets/sounds/1024hz.mp3","response":null,"trial_type":"audio-keyboard-response","trial_index":446,"time_elapsed":440364,"internal_node_id":"0.0-446.0","unixTimestamp":1705701284388},{"rt":null,"stimulus":"","response":null,"trial_type":"html-keyboard-response","trial_index":447,"time_elapsed":440620,"internal_node_id":"0.0-447.0","unixTimestamp":1705701284644},{"rt":null,"stimulus":"+","response":null,"trial_type":"html-keyboard-response","trial_index":448,"time_elapsed":441133,"internal_node_id":"0.0-448.0","unixTimestamp":1705701285157},{"rt":null,"stimulus":"./assets/sounds/1024hz.mp3","response":null,"trial_type":"audio-keyboard-response","trial_index":449,"time_elapsed":441636,"internal_node_id":"0.0-449.0","unixTimestamp":1705701285660},{"rt":null,"stimulus":"","response":null,"trial_type":"html-keyboard-response","trial_index":450,"time_elapsed":441888,"internal_node_id":"0.0-450.0","unixTimestamp":1705701285912},{"rt":null,"stimulus":"+","response":null,"trial_type":"html-keyboard-response","trial_index":451,"time_elapsed":442395,"internal_node_id":"0.0-451.0","unixTimestamp":1705701286419},{"rt":null,"stimulus":"./assets/sounds/1024hz.mp3","response":null,"trial_type":"audio-keyboard-response","trial_index":452,"time_elapsed":442898,"internal_node_id":"0.0-452.0","unixTimestamp":1705701286922},{"rt":null,"stimulus":"","response":null,"trial_type":"html-keyboard-response","trial_index":453,"time_elapsed":443155,"internal_node_id":"0.0-453.0","unixTimestamp":1705701287179},{"rt":null,"stimulus":"+","response":null,"trial_type":"html-keyboard-response","trial_index":454,"time_elapsed":443658,"internal_node_id":"0.0-454.0","unixTimestamp":1705701287682},{"rt":null,"stimulus":"./assets/sounds/1920hz.mp3","response":null,"trial_type":"audio-keyboard-response","trial_index":455,"time_elapsed":444161,"internal_node_id":"0.0-455.0","unixTimestamp":1705701288185},{"rt":null,"stimulus":"","response":null,"trial_type":"html-keyboard-response","trial_index":456,"time_elapsed":444417,"internal_node_id":"0.0-456.0","unixTimestamp":1705701288441},{"rt":null,"stimulus":"+","response":null,"trial_type":"html-keyboard-response","trial_index":457,"time_elapsed":444924,"internal_node_id":"0.0-457.0","unixTimestamp":1705701288948},{"rt":null,"stimulus":"./assets/sounds/1024hz.mp3","response":null,"trial_type":"audio-keyboard-response","trial_index":458,"time_elapsed":445424,"internal_node_id":"0.0-458.0","unixTimestamp":1705701289448},{"rt":null,"stimulus":"","response":null,"trial_type":"html-keyboard-response","trial_index":459,"time_elapsed":445680,"internal_node_id":"0.0-459.0","unixTimestamp":1705701289704},{"rt":null,"stimulus":"+","response":null,"trial_type":"html-keyboard-response","trial_index":460,"time_elapsed":446184,"internal_node_id":"0.0-460.0","unixTimestamp":1705701290208},{"rt":null,"stimulus":"./assets/sounds/1024hz.mp3","response":null,"trial_type":"audio-keyboard-response","trial_index":461,"time_elapsed":446686,"internal_node_id":"0.0-461.0","unixTimestamp":1705701290710},{"rt":null,"stimulus":"","response":null,"trial_type":"html-keyboard-response","trial_index":462,"time_elapsed":446938,"internal_node_id":"0.0-462.0","unixTimestamp":1705701290962},{"rt":null,"stimulus":"+","response":null,"trial_type":"html-keyboard-response","trial_index":463,"time_elapsed":447438,"internal_node_id":"0.0-463.0","unixTimestamp":1705701291462},{"rt":null,"stimulus":"./assets/sounds/1024hz.mp3","response":null,"trial_type":"audio-keyboard-response","trial_index":464,"time_elapsed":447944,"internal_node_id":"0.0-464.0","unixTimestamp":1705701291968},{"rt":null,"stimulus":"","response":null,"trial_type":"html-keyboard-response","trial_index":465,"time_elapsed":448219,"internal_node_id":"0.0-465.0","unixTimestamp":1705701292243},{"rt":null,"stimulus":"+","response":null,"trial_type":"html-keyboard-response","trial_index":466,"time_elapsed":448722,"internal_node_id":"0.0-466.0","unixTimestamp":1705701292746},{"rt":null,"stimulus":"./assets/sounds/1024hz.mp3","response":null,"trial_type":"audio-keyboard-response","trial_index":467,"time_elapsed":449224,"internal_node_id":"0.0-467.0","unixTimestamp":1705701293248},{"rt":null,"stimulus":"","response":null,"trial_type":"html-keyboard-response","trial_index":468,"time_elapsed":449479,"internal_node_id":"0.0-468.0","unixTimestamp":1705701293503},{"rt":null,"stimulus":"+","response":null,"trial_type":"html-keyboard-response","trial_index":469,"time_elapsed":449984,"internal_node_id":"0.0-469.0","unixTimestamp":1705701294008},{"rt":null,"stimulus":"./assets/sounds/1024hz.mp3","response":null,"trial_type":"audio-keyboard-response","trial_index":470,"time_elapsed":450485,"internal_node_id":"0.0-470.0","unixTimestamp":1705701294509},{"rt":null,"stimulus":"","response":null,"trial_type":"html-keyboard-response","trial_index":471,"time_elapsed":450741,"internal_node_id":"0.0-471.0","unixTimestamp":1705701294765},{"rt":null,"stimulus":"+","response":null,"trial_type":"html-keyboard-response","trial_index":472,"time_elapsed":451248,"internal_node_id":"0.0-472.0","unixTimestamp":1705701295272},{"rt":null,"stimulus":"./assets/sounds/1920hz.mp3","response":null,"trial_type":"audio-keyboard-response","trial_index":473,"time_elapsed":451748,"internal_node_id":"0.0-473.0","unixTimestamp":1705701295772},{"rt":null,"stimulus":"","response":null,"trial_type":"html-keyboard-response","trial_index":474,"time_elapsed":452000,"internal_node_id":"0.0-474.0","unixTimestamp":1705701296024},{"rt":null,"stimulus":"+","response":null,"trial_type":"html-keyboard-response","trial_index":475,"time_elapsed":452504,"internal_node_id":"0.0-475.0","unixTimestamp":1705701296528},{"rt":null,"stimulus":"./assets/sounds/1024hz.mp3","response":null,"trial_type":"audio-keyboard-response","trial_index":476,"time_elapsed":453005,"internal_node_id":"0.0-476.0","unixTimestamp":1705701297029},{"rt":null,"stimulus":"","response":null,"trial_type":"html-keyboard-response","trial_index":477,"time_elapsed":453259,"internal_node_id":"0.0-477.0","unixTimestamp":1705701297283},{"rt":null,"stimulus":"+","response":null,"trial_type":"html-keyboard-response","trial_index":478,"time_elapsed":453760,"internal_node_id":"0.0-478.0","unixTimestamp":1705701297784},{"rt":null,"stimulus":"./assets/sounds/1024hz.mp3","response":null,"trial_type":"audio-keyboard-response","trial_index":479,"time_elapsed":454261,"internal_node_id":"0.0-479.0","unixTimestamp":1705701298285},{"rt":null,"stimulus":"","response":null,"trial_type":"html-keyboard-response","trial_index":480,"time_elapsed":454512,"internal_node_id":"0.0-480.0","unixTimestamp":1705701298536},{"rt":null,"stimulus":"+","response":null,"trial_type":"html-keyboard-response","trial_index":481,"time_elapsed":455016,"internal_node_id":"0.0-481.0","unixTimestamp":1705701299040},{"rt":null,"stimulus":"./assets/sounds/1024hz.mp3","response":null,"trial_type":"audio-keyboard-response","trial_index":482,"time_elapsed":455519,"internal_node_id":"0.0-482.0","unixTimestamp":1705701299543},{"rt":null,"stimulus":"","response":null,"trial_type":"html-keyboard-response","trial_index":483,"time_elapsed":455774,"internal_node_id":"0.0-483.0","unixTimestamp":1705701299798},{"rt":null,"stimulus":"+","response":null,"trial_type":"html-keyboard-response","trial_index":484,"time_elapsed":456276,"internal_node_id":"0.0-484.0","unixTimestamp":1705701300300},{"rt":null,"stimulus":"./assets/sounds/1024hz.mp3","response":null,"trial_type":"audio-keyboard-response","trial_index":485,"time_elapsed":456777,"internal_node_id":"0.0-485.0","unixTimestamp":1705701300801},{"rt":null,"stimulus":"","response":null,"trial_type":"html-keyboard-response","trial_index":486,"time_elapsed":457028,"internal_node_id":"0.0-486.0","unixTimestamp":1705701301052},{"rt":null,"stimulus":"+","response":null,"trial_type":"html-keyboard-response","trial_index":487,"time_elapsed":457538,"internal_node_id":"0.0-487.0","unixTimestamp":1705701301562},{"rt":null,"stimulus":"./assets/sounds/1024hz.mp3","response":null,"trial_type":"audio-keyboard-response","trial_index":488,"time_elapsed":458037,"internal_node_id":"0.0-488.0","unixTimestamp":1705701302061},{"rt":null,"stimulus":"","response":null,"trial_type":"html-keyboard-response","trial_index":489,"time_elapsed":458289,"internal_node_id":"0.0-489.0","unixTimestamp":1705701302313},{"rt":null,"stimulus":"+","response":null,"trial_type":"html-keyboard-response","trial_index":490,"time_elapsed":458790,"internal_node_id":"0.0-490.0","unixTimestamp":1705701302814},{"rt":null,"stimulus":"./assets/sounds/1024hz.mp3","response":null,"trial_type":"audio-keyboard-response","trial_index":491,"time_elapsed":459295,"internal_node_id":"0.0-491.0","unixTimestamp":1705701303319},{"rt":null,"stimulus":"","response":null,"trial_type":"html-keyboard-response","trial_index":492,"time_elapsed":459547,"internal_node_id":"0.0-492.0","unixTimestamp":1705701303571},{"rt":null,"stimulus":"+","response":null,"trial_type":"html-keyboard-response","trial_index":493,"time_elapsed":460052,"internal_node_id":"0.0-493.0","unixTimestamp":1705701304076},{"rt":null,"stimulus":"./assets/sounds/1024hz.mp3","response":null,"trial_type":"audio-keyboard-response","trial_index":494,"time_elapsed":460557,"internal_node_id":"0.0-494.0","unixTimestamp":1705701304581},{"rt":null,"stimulus":"","response":null,"trial_type":"html-keyboard-response","trial_index":495,"time_elapsed":460813,"internal_node_id":"0.0-495.0","unixTimestamp":1705701304837},{"rt":null,"stimulus":"+","response":null,"trial_type":"html-keyboard-response","trial_index":496,"time_elapsed":461316,"internal_node_id":"0.0-496.0","unixTimestamp":1705701305340},{"rt":null,"stimulus":"./assets/sounds/1024hz.mp3","response":null,"trial_type":"audio-keyboard-response","trial_index":497,"time_elapsed":461819,"internal_node_id":"0.0-497.0","unixTimestamp":1705701305843},{"rt":null,"stimulus":"","response":null,"trial_type":"html-keyboard-response","trial_index":498,"time_elapsed":462071,"internal_node_id":"0.0-498.0","unixTimestamp":1705701306095},{"rt":null,"stimulus":"+","response":null,"trial_type":"html-keyboard-response","trial_index":499,"time_elapsed":462572,"internal_node_id":"0.0-499.0","unixTimestamp":1705701306596},{"rt":null,"stimulus":"./assets/sounds/1024hz.mp3","response":null,"trial_type":"audio-keyboard-response","trial_index":500,"time_elapsed":463076,"internal_node_id":"0.0-500.0","unixTimestamp":1705701307100},{"rt":null,"stimulus":"","response":null,"trial_type":"html-keyboard-response","trial_index":501,"time_elapsed":463338,"internal_node_id":"0.0-501.0","unixTimestamp":1705701307362},{"rt":null,"stimulus":"+","response":null,"trial_type":"html-keyboard-response","trial_index":502,"time_elapsed":463841,"internal_node_id":"0.0-502.0","unixTimestamp":1705701307865},{"rt":null,"stimulus":"./assets/sounds/1024hz.mp3","response":null,"trial_type":"audio-keyboard-response","trial_index":503,"time_elapsed":464345,"internal_node_id":"0.0-503.0","unixTimestamp":1705701308369},{"rt":null,"stimulus":"","response":null,"trial_type":"html-keyboard-response","trial_index":504,"time_elapsed":464598,"internal_node_id":"0.0-504.0","unixTimestamp":1705701308622},{"rt":null,"stimulus":"+","response":null,"trial_type":"html-keyboard-response","trial_index":505,"time_elapsed":465103,"internal_node_id":"0.0-505.0","unixTimestamp":1705701309127},{"rt":null,"stimulus":"./assets/sounds/1024hz.mp3","response":null,"trial_type":"audio-keyboard-response","trial_index":506,"time_elapsed":465602,"internal_node_id":"0.0-506.0","unixTimestamp":1705701309626},{"rt":null,"stimulus":"","response":null,"trial_type":"html-keyboard-response","trial_index":507,"time_elapsed":465856,"internal_node_id":"0.0-507.0","unixTimestamp":1705701309880},{"rt":null,"stimulus":"+","response":null,"trial_type":"html-keyboard-response","trial_index":508,"time_elapsed":466371,"internal_node_id":"0.0-508.0","unixTimestamp":1705701310395},{"rt":null,"stimulus":"./assets/sounds/1920hz.mp3","response":null,"trial_type":"audio-keyboard-response","trial_index":509,"time_elapsed":466877,"internal_node_id":"0.0-509.0","unixTimestamp":1705701310901},{"rt":null,"stimulus":"","response":null,"trial_type":"html-keyboard-response","trial_index":510,"time_elapsed":467132,"internal_node_id":"0.0-510.0","unixTimestamp":1705701311156},{"rt":null,"stimulus":"+","response":null,"trial_type":"html-keyboard-response","trial_index":511,"time_elapsed":467639,"internal_node_id":"0.0-511.0","unixTimestamp":1705701311663},{"rt":null,"stimulus":"./assets/sounds/1024hz.mp3","response":null,"trial_type":"audio-keyboard-response","trial_index":512,"time_elapsed":468138,"internal_node_id":"0.0-512.0","unixTimestamp":1705701312162},{"rt":null,"stimulus":"","response":null,"trial_type":"html-keyboard-response","trial_index":513,"time_elapsed":468391,"internal_node_id":"0.0-513.0","unixTimestamp":1705701312415},{"rt":null,"stimulus":"+","response":null,"trial_type":"html-keyboard-response","trial_index":514,"time_elapsed":468893,"internal_node_id":"0.0-514.0","unixTimestamp":1705701312917},{"rt":null,"stimulus":"./assets/sounds/1024hz.mp3","response":null,"trial_type":"audio-keyboard-response","trial_index":515,"time_elapsed":469395,"internal_node_id":"0.0-515.0","unixTimestamp":1705701313419},{"rt":null,"stimulus":"","response":null,"trial_type":"html-keyboard-response","trial_index":516,"time_elapsed":469649,"internal_node_id":"0.0-516.0","unixTimestamp":1705701313673},{"rt":null,"stimulus":"+","response":null,"trial_type":"html-keyboard-response","trial_index":517,"time_elapsed":470150,"internal_node_id":"0.0-517.0","unixTimestamp":1705701314174},{"rt":null,"stimulus":"./assets/sounds/1024hz.mp3","response":null,"trial_type":"audio-keyboard-response","trial_index":518,"time_elapsed":470652,"internal_node_id":"0.0-518.0","unixTimestamp":1705701314676},{"rt":null,"stimulus":"","response":null,"trial_type":"html-keyboard-response","trial_index":519,"time_elapsed":470903,"internal_node_id":"0.0-519.0","unixTimestamp":1705701314927},{"rt":null,"stimulus":"+","response":null,"trial_type":"html-keyboard-response","trial_index":520,"time_elapsed":471406,"internal_node_id":"0.0-520.0","unixTimestamp":1705701315430},{"rt":null,"stimulus":"./assets/sounds/1024hz.mp3","response":null,"trial_type":"audio-keyboard-response","trial_index":521,"time_elapsed":471909,"internal_node_id":"0.0-521.0","unixTimestamp":1705701315933},{"rt":null,"stimulus":"","response":null,"trial_type":"html-keyboard-response","trial_index":522,"time_elapsed":472161,"internal_node_id":"0.0-522.0","unixTimestamp":1705701316185},{"rt":null,"stimulus":"+","response":null,"trial_type":"html-keyboard-response","trial_index":523,"time_elapsed":472664,"internal_node_id":"0.0-523.0","unixTimestamp":1705701316688},{"rt":null,"stimulus":"./assets/sounds/1920hz.mp3","response":null,"trial_type":"audio-keyboard-response","trial_index":524,"time_elapsed":473168,"internal_node_id":"0.0-524.0","unixTimestamp":1705701317192},{"rt":null,"stimulus":"","response":